onset	duration	trial_type	stimulus_name	set_num	keypress	response	rt	similarity_bin
0.0	3.5	Foil	stimuli/objects/foils/foil_1617.JPG	0	3#	New	1.015	0
3.5	3.5	First	stimuli/objects/setsof2/107b.jpg	107	3#	New	1.004	0
7.0	3.5	Foil	stimuli/objects/foils/foil_1250.JPG	0	3#	New	0.853	0
10.5	3.5	Foil	stimuli/objects/foils/foil_1132.JPG	0	3#	New	0.990	0
14.0	3.5	First	stimuli/objects/setsof2/075a.jpg	75	3#	New	1.632	0
17.5	3.5	Foil	stimuli/objects/foils/foil_1141.JPG	0	3#	New	1.294	0
21.0	3.5	Foil	stimuli/objects/foils/foil_1550.JPG	0	3#	New	1.361	0
24.5	3.5	First	stimuli/objects/setsof2/055a.jpg	55	3#	New	0.886	0
28.0	3.5	Foil	stimuli/objects/foils/foil_1110.JPG	0	3#	New	0.789	0
31.5	3.5	Foil	stimuli/objects/foils/foil_1510.JPG	0	3#	New	1.047	0
35.0	3.5	First	stimuli/objects/setsof2/058a.jpg	58	3#	New	1.526	0
38.5	3.5	Foil	stimuli/objects/foils/foil_1622.JPG	0	3#	New	0.858	0
42.0	3.5	Foil	stimuli/objects/foils/foil_1344.JPG	0	3#	New	1.093	0
45.5	3.5	First	stimuli/objects/setsof2/187a.jpg	187	3#	New	0.951	0
49.0	3.5	Repeat	stimuli/objects/setsof2/075a.jpg	75	1!	Old	0.911	0
52.5	3.5	Foil	stimuli/objects/foils/foil_1478.JPG	0	3#	New	0.770	0
56.0	3.5	Foil	stimuli/objects/foils/foil_1506.JPG	0	3#	New	0.974	0
59.5	3.5	First	stimuli/objects/setsof2/142a.jpg	142	3#	New	1.306	0
63.0	3.5	Foil	stimuli/objects/foils/foil_1094.JPG	0	3#	New	1.017	0
66.5	3.5	First	stimuli/objects/setsof2/120b.jpg	120	3#	New	0.869	0
70.0	3.5	Repeat	stimuli/objects/setsof2/058a.jpg	58	1!	Old	1.447	0
73.5	3.5	Foil	stimuli/objects/foils/foil_1372.JPG	0	3#	New	1.278	0
77.0	3.5	First	stimuli/objects/setsof2/157a.jpg	157	3#	New	0.976	0
80.5	3.5	Lure	stimuli/objects/setsof2/187b.jpg	187	2@	Similar	1.534	1
84.0	3.5	Foil	stimuli/objects/foils/foil_1579.JPG	0	3#	New	0.826	0
87.5	3.5	Repeat	stimuli/objects/setsof2/055a.jpg	55	1!	Old	1.199	0
91.0	3.5	First	stimuli/objects/setsof2/119b.jpg	119	3#	New	0.983	0
94.5	3.5	Foil	stimuli/objects/foils/foil_1046.JPG	0	3#	New	0.776	0
98.0	3.5	First	stimuli/objects/setsof2/027a.jpg	27	3#	New	0.888	0
101.5	3.5	Foil	stimuli/objects/foils/foil_1163.JPG	0	3#	New	1.413	0
105.0	3.5	Foil	stimuli/objects/foils/foil_1543.JPG	0	3#	New	1.008	0
108.5	3.5	Foil	stimuli/objects/foils/foil_1170.JPG	0	3#	New	0.906	0
112.0	3.5	Foil	stimuli/objects/foils/foil_1367.JPG	0	3#	New	0.953	0
115.5	3.5	First	stimuli/objects/setsof2/080a.jpg	80	3#	New	0.725	0
119.0	3.5	First	stimuli/objects/setsof2/155a.jpg	155	3#	New	0.805	0
122.5	3.5	Foil	stimuli/objects/foils/foil_1616.JPG	0	3#	New	0.816	0
126.0	3.5	Foil	stimuli/objects/foils/foil_1672.JPG	0	3#	New	0.650	0
129.5	3.5	First	stimuli/objects/setsof2/185b.jpg	185	3#	New	0.646	0
133.0	3.5	Foil	stimuli/objects/foils/foil_1637.JPG	0	3#	New	0.920	0
136.5	3.5	Lure	stimuli/objects/setsof2/027b.jpg	27	2@	Similar	1.476	6
140.0	3.5	First	stimuli/objects/setsof2/192b.jpg	192	3#	New	0.837	0
143.5	3.5	Foil	stimuli/objects/foils/foil_1686.JPG	0	3#	New	0.831	0
147.0	3.5	Foil	stimuli/objects/foils/foil_1322.JPG	0	3#	New	0.763	0
150.5	3.5	First	stimuli/objects/setsof2/006b.jpg	6	3#	New	0.705	0
154.0	3.5	Foil	stimuli/objects/foils/foil_1396.JPG	0	3#	New	0.755	0
157.5	3.5	Foil	stimuli/objects/foils/foil_1306.JPG	0	3#	New	0.689	0
161.0	3.5	First	stimuli/objects/setsof2/009a.jpg	9	3#	New	0.888	0
164.5	3.5	Repeat	stimuli/objects/setsof2/185b.jpg	185	1!	Old	0.949	0
168.0	3.5	Foil	stimuli/objects/foils/foil_1219.JPG	0	1!	Old	1.299	0
171.5	3.5	Repeat	stimuli/objects/setsof2/107b.jpg	107	1!	Old	0.869	0
175.0	3.5	Foil	stimuli/objects/foils/foil_1389.JPG	0	3#	New	1.155	0
178.5	3.5	Repeat	stimuli/objects/setsof2/080a.jpg	80	1!	Old	0.930	0
182.0	3.5	First	stimuli/objects/setsof2/127b.jpg	127	3#	New	0.837	0
185.5	3.5	Foil	stimuli/objects/foils/foil_1100.JPG	0	3#	New	0.940	0
189.0	3.5	First	stimuli/objects/setsof2/178b.jpg	178	3#	New	0.743	0
192.5	3.5	First	stimuli/objects/setsof2/014b.jpg	14	3#	New	0.579	0
196.0	3.5	Repeat	stimuli/objects/setsof2/142a.jpg	142	1!	Old	0.884	0
199.5	3.5	Foil	stimuli/objects/foils/foil_1274.JPG	0	3#	New	0.719	0
203.0	3.5	First	stimuli/objects/setsof2/088a.jpg	88	3#	New	0.713	0
206.5	3.5	Lure	stimuli/objects/setsof2/120a.jpg	120	1!	Old	0.865	6
210.0	3.5	Foil	stimuli/objects/foils/foil_1252.JPG	0	3#	New	0.934	0
213.5	3.5	First	stimuli/objects/setsof2/143a.jpg	143	3#	New	0.713	0
217.0	3.5	Foil	stimuli/objects/foils/foil_1203.JPG	0	3#	New	0.618	0
220.5	3.5	Foil	stimuli/objects/foils/foil_1192.JPG	0	3#	New	0.597	0
224.0	3.5	First	stimuli/objects/setsof2/158b.jpg	158	3#	New	0.640	0
227.5	3.5	Repeat	stimuli/objects/setsof2/119b.jpg	119	1!	Old	0.939	0
231.0	3.5	Repeat	stimuli/objects/setsof2/009a.jpg	9	1!	Old	1.080	0
234.5	3.5	Lure	stimuli/objects/setsof2/157b.jpg	157	2@	Similar	1.088	3
238.0	3.5	Repeat	stimuli/objects/setsof2/088a.jpg	88	1!	Old	0.854	0
241.5	3.5	First	stimuli/objects/setsof2/073b.jpg	73	3#	New	0.924	0
245.0	3.5	First	stimuli/objects/setsof2/017a.jpg	17	2@	Similar	1.000	0
248.5	3.5	Lure	stimuli/objects/setsof2/143b.jpg	143	2@	Similar	0.952	4
252.0	3.5	Repeat	stimuli/objects/setsof2/127b.jpg	127	1!	Old	0.969	0
255.5	3.5	Lure	stimuli/objects/setsof2/178a.jpg	178	3#	New	1.076	1
259.0	3.5	Lure	stimuli/objects/setsof2/155b.jpg	155	2@	Similar	1.041	3
262.5	3.5	Lure	stimuli/objects/setsof2/014a.jpg	14	2@	Similar	0.906	2
266.0	3.5	First	stimuli/objects/setsof2/004b.jpg	4	3#	New	1.536	0
269.5	3.5	First	stimuli/objects/setsof2/091a.jpg	91	2@	Similar	1.337	0
273.0	3.5	Repeat	stimuli/objects/setsof2/073b.jpg	73	1!	Old	1.244	0
276.5	3.5	First	stimuli/objects/setsof2/095a.jpg	95	3#	New	0.903	0
280.0	3.5	Lure	stimuli/objects/setsof2/192a.jpg	192	2@	Similar	1.021	2
283.5	3.5	Foil	stimuli/objects/foils/foil_1065.JPG	0	3#	New	1.250	0
287.0	3.5	First	stimuli/objects/setsof2/141a.jpg	141	3#	New	0.741	0
290.5	3.5	Lure	stimuli/objects/setsof2/006a.jpg	6	2@	Similar	1.033	2
294.0	3.5	Repeat	stimuli/objects/setsof2/158b.jpg	158	1!	Old	0.919	0
297.5	3.5	First	stimuli/objects/setsof2/164b.jpg	164	3#	New	1.194	0
301.0	3.5	Foil	stimuli/objects/foils/foil_1034.JPG	0	3#	New	0.925	0
304.5	3.5	Lure	stimuli/objects/setsof2/004a.jpg	4	5%	None	1.729	6
308.0	3.5	First	stimuli/objects/setsof2/037a.jpg	37	3#	New	1.155	0
311.5	3.5	Lure	stimuli/objects/setsof2/095b.jpg	95	1!	Old	1.387	6
315.0	3.5	Foil	stimuli/objects/foils/foil_1042.JPG	0	1!	Old	1.323	0
318.5	3.5	First	stimuli/objects/setsof2/010a.jpg	10	3#	New	0.871	0
322.0	3.5	Lure	stimuli/objects/setsof2/017b.jpg	17	2@	Similar	1.487	1
325.5	3.5	Repeat	stimuli/objects/setsof2/091a.jpg	91	2@	Similar	1.355	0
329.0	3.5	First	stimuli/objects/setsof2/043a.jpg	43	3#	New	0.672	0
332.5	3.5	Repeat	stimuli/objects/setsof2/164b.jpg	164	1!	Old	1.019	0
336.0	3.5	Lure	stimuli/objects/setsof2/141b.jpg	141	2@	Similar	1.118	3
339.5	3.5	Foil	stimuli/objects/foils/foil_1463.JPG	0	3#	New	1.372	0
343.0	3.5	Lure	stimuli/objects/setsof2/037b.jpg	37	2@	Similar	0.858	6
346.5	3.5	Foil	stimuli/objects/foils/foil_1624.JPG	0	2@	Similar	1.463	0
350.0	3.5	Foil	stimuli/objects/foils/foil_1267.JPG	0	3#	New	1.087	0
353.5	3.5	Repeat	stimuli/objects/setsof2/010a.jpg	10	2@	Similar	0.967	0
357.0	3.5	Foil	stimuli/objects/foils/foil_1431.JPG	0	2@	Similar	0.745	0
360.5	3.5	Foil	stimuli/objects/foils/foil_1276.JPG	0	3#	New	1.620	0
364.0	3.5	Lure	stimuli/objects/setsof2/043b.jpg	43	1!	Old	0.937	5
367.5	3.5	Foil	stimuli/objects/foils/foil_1597.JPG	0	3#	New	1.000	0
371.0	3.5	Foil	stimuli/objects/foils/foil_1347.JPG	0	3#	New	1.364	0
