onset	duration	trial_type	stimulus_name	set_num	keypress	response	rt	similarity_bin
0.0	3.5	Foil	stimuli/objects/foils/foil_1062.JPG	0	3#	New	0.918	0
3.5	3.5	First	stimuli/objects/setsof2/160a.jpg	160	3#	New	0.825	0
7.0	3.5	Foil	stimuli/objects/foils/foil_1115.JPG	0	3#	New	1.170	0
10.5	3.5	Foil	stimuli/objects/foils/foil_1607.JPG	0	3#	New	0.989	0
14.0	3.5	Foil	stimuli/objects/foils/foil_1246.JPG	0	3#	New	1.111	0
17.5	3.5	Foil	stimuli/objects/foils/foil_1057.JPG	0	3#	New	0.671	0
21.0	3.5	First	stimuli/objects/setsof2/059a.jpg	59	3#	New	0.831	0
24.5	3.5	Foil	stimuli/objects/foils/foil_1567.JPG	0	3#	New	0.569	0
28.0	3.5	First	stimuli/objects/setsof2/144b.jpg	144	3#	New	0.654	0
31.5	3.5	Foil	stimuli/objects/foils/foil_1314.JPG	0	3#	New	1.032	0
35.0	3.5	First	stimuli/objects/setsof2/110b.jpg	110	3#	New	0.729	0
38.5	3.5	Lure	stimuli/objects/setsof2/160b.jpg	160	2@	Similar	1.325	1
42.0	3.5	Foil	stimuli/objects/foils/foil_1200.JPG	0	3#	New	0.637	0
45.5	3.5	Foil	stimuli/objects/foils/foil_1358.JPG	0	2@	Similar	1.155	0
49.0	3.5	Repeat	stimuli/objects/setsof2/059a.jpg	59	1!	Old	0.938	0
52.5	3.5	First	stimuli/objects/setsof2/062a.jpg	62	3#	New	0.814	0
56.0	3.5	Foil	stimuli/objects/foils/foil_1722.JPG	0	3#	New	0.617	0
59.5	3.5	First	stimuli/objects/setsof2/051b.jpg	51	3#	New	0.692	0
63.0	3.5	Foil	stimuli/objects/foils/foil_1308.JPG	0	3#	New	0.599	0
66.5	3.5	First	stimuli/objects/setsof2/097b.jpg	97	3#	New	0.677	0
70.0	3.5	Repeat	stimuli/objects/setsof2/144b.jpg	144	1!	Old	0.931	0
73.5	3.5	Foil	stimuli/objects/foils/foil_1095.JPG	0	3#	New	0.804	0
77.0	3.5	First	stimuli/objects/setsof2/019b.jpg	19	3#	New	0.839	0
80.5	3.5	Foil	stimuli/objects/foils/foil_1718.JPG	0	3#	New	0.772	0
84.0	3.5	Lure	stimuli/objects/setsof2/062b.jpg	62	2@	Similar	0.947	2
87.5	3.5	First	stimuli/objects/setsof2/033a.jpg	33	3#	New	0.777	0
91.0	3.5	Repeat	stimuli/objects/setsof2/051b.jpg	51	1!	Old	1.000	0
94.5	3.5	Foil	stimuli/objects/foils/foil_1483.JPG	0	3#	New	1.159	0
98.0	3.5	First	stimuli/objects/setsof2/050a.jpg	50	3#	New	0.800	0
101.5	3.5	Foil	stimuli/objects/foils/foil_1410.JPG	0	3#	New	0.639	0
105.0	3.5	Foil	stimuli/objects/foils/foil_1647.JPG	0	3#	New	1.051	0
108.5	3.5	First	stimuli/objects/setsof2/039a.jpg	39	3#	New	0.587	0
112.0	3.5	Foil	stimuli/objects/foils/foil_1527.JPG	0	3#	New	0.766	0
115.5	3.5	Foil	stimuli/objects/foils/foil_1114.JPG	0	3#	New	1.069	0
119.0	3.5	First	stimuli/objects/setsof2/128a.jpg	128	3#	New	1.280	0
122.5	3.5	Repeat	stimuli/objects/setsof2/033a.jpg	33	1!	Old	0.916	0
126.0	3.5	Foil	stimuli/objects/foils/foil_1671.JPG	0	3#	New	1.113	0
129.5	3.5	First	stimuli/objects/setsof2/136b.jpg	136	3#	New	0.647	0
133.0	3.5	Foil	stimuli/objects/foils/foil_1673.JPG	0	3#	New	0.906	0
136.5	3.5	Foil	stimuli/objects/foils/foil_1092.JPG	0	3#	New	0.670	0
140.0	3.5	First	stimuli/objects/setsof2/023a.jpg	23	3#	New	0.587	0
143.5	3.5	Foil	stimuli/objects/foils/foil_1225.JPG	0	3#	New	0.577	0
147.0	3.5	Foil	stimuli/objects/foils/foil_1689.JPG	0	3#	New	0.619	0
150.5	3.5	Foil	stimuli/objects/foils/foil_1585.JPG	0	3#	New	0.565	0
154.0	3.5	First	stimuli/objects/setsof2/170b.jpg	170	3#	New	0.638	0
157.5	3.5	Foil	stimuli/objects/foils/foil_1128.JPG	0	3#	New	0.712	0
161.0	3.5	First	stimuli/objects/setsof2/022a.jpg	22	3#	New	0.689	0
164.5	3.5	Foil	stimuli/objects/foils/foil_1320.JPG	0	3#	New	0.680	0
168.0	3.5	Foil	stimuli/objects/foils/foil_1677.JPG	0	3#	New	0.739	0
171.5	3.5	Lure	stimuli/objects/setsof2/136a.jpg	136	2@	Similar	0.890	1
175.0	3.5	Lure	stimuli/objects/setsof2/110a.jpg	110	1!	Old	1.206	4
178.5	3.5	Foil	stimuli/objects/foils/foil_1091.JPG	0	3#	New	0.865	0
182.0	3.5	First	stimuli/objects/setsof2/020b.jpg	20	3#	New	0.788	0
185.5	3.5	Foil	stimuli/objects/foils/foil_1519.JPG	0	3#	New	0.611	0
189.0	3.5	Foil	stimuli/objects/foils/foil_1210.JPG	0	3#	New	0.847	0
192.5	3.5	First	stimuli/objects/setsof2/105b.jpg	105	3#	New	0.754	0
196.0	3.5	First	stimuli/objects/setsof2/030a.jpg	30	3#	New	0.587	0
199.5	3.5	Foil	stimuli/objects/foils/foil_1665.JPG	0	3#	New	0.863	0
203.0	3.5	First	stimuli/objects/setsof2/169a.jpg	169	3#	New	0.620	0
206.5	3.5	Lure	stimuli/objects/setsof2/097a.jpg	97	1!	Old	1.427	2
210.0	3.5	Lure	stimuli/objects/setsof2/023b.jpg	23	2@	Similar	1.059	3
213.5	3.5	First	stimuli/objects/setsof2/024a.jpg	24	3#	New	0.899	0
217.0	3.5	Repeat	stimuli/objects/setsof2/019b.jpg	19	1!	Old	0.884	0
220.5	3.5	Foil	stimuli/objects/foils/foil_1542.JPG	0	3#	New	0.695	0
224.0	3.5	First	stimuli/objects/setsof2/069b.jpg	69	3#	New	0.796	0
227.5	3.5	Lure	stimuli/objects/setsof2/105a.jpg	105	1!	Old	1.023	5
231.0	3.5	Foil	stimuli/objects/foils/foil_1240.JPG	0	3#	New	1.355	0
234.5	3.5	First	stimuli/objects/setsof2/086a.jpg	86	3#	New	1.418	0
238.0	3.5	Repeat	stimuli/objects/setsof2/050a.jpg	50	1!	Old	0.852	0
241.5	3.5	Repeat	stimuli/objects/setsof2/030a.jpg	30	1!	Old	0.847	0
245.0	3.5	Foil	stimuli/objects/foils/foil_1047.JPG	0	3#	New	0.905	0
248.5	3.5	Repeat	stimuli/objects/setsof2/039a.jpg	39	1!	Old	0.845	0
252.0	3.5	First	stimuli/objects/setsof2/061a.jpg	61	3#	New	0.940	0
255.5	3.5	First	stimuli/objects/setsof2/116a.jpg	116	3#	New	1.221	0
259.0	3.5	Lure	stimuli/objects/setsof2/020a.jpg	20	2@	Similar	0.974	6
262.5	3.5	Lure	stimuli/objects/setsof2/128b.jpg	128	1!	Old	0.766	5
266.0	3.5	First	stimuli/objects/setsof2/121a.jpg	121	3#	New	0.883	0
269.5	3.5	Foil	stimuli/objects/foils/foil_1474.JPG	0	3#	New	0.843	0
273.0	3.5	Repeat	stimuli/objects/setsof2/169a.jpg	169	1!	Old	0.866	0
276.5	3.5	First	stimuli/objects/setsof2/172a.jpg	172	3#	New	0.907	0
280.0	3.5	Lure	stimuli/objects/setsof2/086b.jpg	86	2@	Similar	1.674	2
283.5	3.5	Repeat	stimuli/objects/setsof2/024a.jpg	24	1!	Old	0.878	0
287.0	3.5	First	stimuli/objects/setsof2/180b.jpg	180	3#	New	0.891	0
290.5	3.5	Lure	stimuli/objects/setsof2/061b.jpg	61	2@	Similar	0.981	5
294.0	3.5	Repeat	stimuli/objects/setsof2/170b.jpg	170	1!	Old	1.331	0
297.5	3.5	Lure	stimuli/objects/setsof2/069a.jpg	69	2@	Similar	0.994	2
301.0	3.5	Lure	stimuli/objects/setsof2/022b.jpg	22	3#	New	0.722	5
304.5	3.5	Foil	stimuli/objects/foils/foil_1599.JPG	0	3#	New	0.631	0
308.0	3.5	First	stimuli/objects/setsof2/102b.jpg	102	3#	New	0.938	0
311.5	3.5	First	stimuli/objects/setsof2/083a.jpg	83	3#	New	0.802	0
315.0	3.5	Foil	stimuli/objects/foils/foil_1562.JPG	0	3#	New	0.772	0
318.5	3.5	Lure	stimuli/objects/setsof2/172b.jpg	172	3#	New	1.097	3
322.0	3.5	Lure	stimuli/objects/setsof2/180a.jpg	180	1!	Old	0.921	6
325.5	3.5	First	stimuli/objects/setsof2/066b.jpg	66	3#	New	0.736	0
329.0	3.5	First	stimuli/objects/setsof2/025b.jpg	25	3#	New	1.116	0
332.5	3.5	Lure	stimuli/objects/setsof2/102a.jpg	102	1!	Old	1.721	3
336.0	3.5	Repeat	stimuli/objects/setsof2/116a.jpg	116	1!	Old	0.969	0
339.5	3.5	Repeat	stimuli/objects/setsof2/121a.jpg	121	1!	Old	0.906	0
343.0	3.5	Foil	stimuli/objects/foils/foil_1366.JPG	0	2@	Similar	1.037	0
346.5	3.5	Repeat	stimuli/objects/setsof2/083a.jpg	83	1!	Old	0.879	0
350.0	3.5	Foil	stimuli/objects/foils/foil_1447.JPG	0	3#	New	0.804	0
353.5	3.5	Repeat	stimuli/objects/setsof2/066b.jpg	66	1!	Old	0.949	0
357.0	3.5	Foil	stimuli/objects/foils/foil_1456.JPG	0	3#	New	1.052	0
360.5	3.5	Foil	stimuli/objects/foils/foil_1690.JPG	0	3#	New	0.923	0
364.0	3.5	Repeat	stimuli/objects/setsof2/025b.jpg	25	1!	Old	0.804	0
367.5	3.5	Foil	stimuli/objects/foils/foil_1588.JPG	0	3#	New	0.758	0
371.0	3.5	Foil	stimuli/objects/foils/foil_1458.JPG	0	3#	New	0.802	0
