onset	duration	trial_type	stimulus_name	set_num	keypress	response	rt	similarity_bin
0.0	3.5	Foil	stimuli/objects/foils/foil_1357.JPG	0	3#	New	0.847	0
3.5	3.5	Foil	stimuli/objects/foils/foil_1447.JPG	0	3#	New	0.727	0
7.0	3.5	First	stimuli/objects/setsof2/063b.jpg	63	3#	New	0.588	0
10.5	3.5	Foil	stimuli/objects/foils/foil_1008.jpg	0	3#	New	0.629	0
14.0	3.5	First	stimuli/objects/setsof2/009a.jpg	9	3#	New	0.980	0
17.5	3.5	Foil	stimuli/objects/foils/foil_1377.JPG	0	3#	New	0.761	0
21.0	3.5	Foil	stimuli/objects/foils/foil_1706.JPG	0	3#	New	0.951	0
24.5	3.5	First	stimuli/objects/setsof2/138a.jpg	138	3#	New	0.466	0
28.0	3.5	Foil	stimuli/objects/foils/foil_1723.JPG	0	3#	New	0.610	0
31.5	3.5	Foil	stimuli/objects/foils/foil_1273.JPG	0	3#	New	0.704	0
35.0	3.5	First	stimuli/objects/setsof2/113a.jpg	113	3#	New	0.632	0
38.5	3.5	Foil	stimuli/objects/foils/foil_1383.JPG	0	3#	New	0.954	0
42.0	3.5	Foil	stimuli/objects/foils/foil_1337.JPG	0	3#	New	0.840	0
45.5	3.5	First	stimuli/objects/setsof2/116a.jpg	116	3#	New	1.083	0
49.0	3.5	Foil	stimuli/objects/foils/foil_1720.JPG	0	3#	New	1.010	0
52.5	3.5	Foil	stimuli/objects/foils/foil_1558.JPG	0	3#	New	0.911	0
56.0	3.5	First	stimuli/objects/setsof2/154b.jpg	154	3#	New	0.817	0
59.5	3.5	Repeat	stimuli/objects/setsof2/138a.jpg	138	1!	Old	1.040	0
63.0	3.5	Foil	stimuli/objects/foils/foil_1243.JPG	0	3#	New	1.482	0
66.5	3.5	First	stimuli/objects/setsof2/112a.jpg	112	3#	New	1.704	0
70.0	3.5	Foil	stimuli/objects/foils/foil_1345.JPG	0	3#	New	1.433	0
73.5	3.5	Repeat	stimuli/objects/setsof2/113a.jpg	113	1!	Old	1.284	0
77.0	3.5	First	stimuli/objects/setsof2/008a.jpg	8	3#	New	0.792	0
80.5	3.5	Foil	stimuli/objects/foils/foil_1648.JPG	0	3#	New	0.793	0
84.0	3.5	Foil	stimuli/objects/foils/foil_1232.JPG	0	3#	New	0.989	0
87.5	3.5	Repeat	stimuli/objects/setsof2/116a.jpg	116	1!	Old	1.035	0
91.0	3.5	Foil	stimuli/objects/foils/foil_1188.JPG	0	3#	New	1.551	0
94.5	3.5	Foil	stimuli/objects/foils/foil_1076.JPG	0	3#	New	1.516	0
98.0	3.5	First	stimuli/objects/setsof2/142b.jpg	142	3#	New	0.931	0
101.5	3.5	First	stimuli/objects/setsof2/144a.jpg	144	3#	New	0.715	0
105.0	3.5	Foil	stimuli/objects/foils/foil_1539.JPG	0	3#	New	0.766	0
108.5	3.5	First	stimuli/objects/setsof2/025a.jpg	25	3#	New	0.714	0
112.0	3.5	Lure	stimuli/objects/setsof2/008b.jpg	8	1!	Old	1.057	3
115.5	3.5	Foil	stimuli/objects/foils/foil_1235.JPG	0	3#	New	1.096	0
119.0	3.5	Foil	stimuli/objects/foils/foil_1040.jpg	0	3#	New	1.203	0
122.5	3.5	Foil	stimuli/objects/foils/foil_1175.JPG	0	3#	New	0.899	0
126.0	3.5	Foil	stimuli/objects/foils/foil_1105.jpg	0	3#	New	1.668	0
129.5	3.5	First	stimuli/objects/setsof2/183b.jpg	183	3#	New	0.786	0
133.0	3.5	Lure	stimuli/objects/setsof2/142a.jpg	142	1!	Old	0.925	5
136.5	3.5	First	stimuli/objects/setsof2/053b.jpg	53	3#	New	0.743	0
140.0	3.5	Foil	stimuli/objects/foils/foil_1069.JPG	0	3#	New	0.709	0
143.5	3.5	First	stimuli/objects/setsof2/048a.jpg	48	3#	New	0.669	0
147.0	3.5	Foil	stimuli/objects/foils/foil_1442.JPG	0	3#	New	0.742	0
150.5	3.5	First	stimuli/objects/setsof2/068a.jpg	68	3#	New	1.611	0
154.0	3.5	Repeat	stimuli/objects/setsof2/063b.jpg	63	3#	New	0.843	0
157.5	3.5	Repeat	stimuli/objects/setsof2/009a.jpg	9	3#	New	1.051	0
161.0	3.5	First	stimuli/objects/setsof2/054b.jpg	54	3#	New	1.201	0
164.5	3.5	Foil	stimuli/objects/foils/foil_1134.JPG	0	3#	New	0.649	0
168.0	3.5	Foil	stimuli/objects/foils/foil_1359.JPG	0	3#	New	0.754	0
171.5	3.5	Foil	stimuli/objects/foils/foil_1713.JPG	0	3#	New	0.670	0
175.0	3.5	First	stimuli/objects/setsof2/012a.jpg	12	3#	New	0.614	0
178.5	3.5	Lure	stimuli/objects/setsof2/025b.jpg	25	3#	New	1.425	4
182.0	3.5	Foil	stimuli/objects/foils/foil_1573.JPG	0	3#	New	0.678	0
185.5	3.5	First	stimuli/objects/setsof2/021a.jpg	21	3#	New	0.637	0
189.0	3.5	Foil	stimuli/objects/foils/foil_1306.JPG	0	5%	None	1.740	0
192.5	3.5	Lure	stimuli/objects/setsof2/183a.jpg	183	5%	None	1.740	6
196.0	3.5	Lure	stimuli/objects/setsof2/154a.jpg	154	2@	Similar	1.001	1
199.5	3.5	First	stimuli/objects/setsof2/006b.jpg	6	1!	Old	1.344	0
203.0	3.5	First	stimuli/objects/setsof2/065a.jpg	65	3#	New	0.774	0
206.5	3.5	Lure	stimuli/objects/setsof2/112b.jpg	112	2@	Similar	1.648	1
210.0	3.5	Foil	stimuli/objects/foils/foil_1462.JPG	0	3#	New	1.100	0
213.5	3.5	Foil	stimuli/objects/foils/foil_1696.JPG	0	3#	New	1.618	0
217.0	3.5	Repeat	stimuli/objects/setsof2/021a.jpg	21	1!	Old	0.977	0
220.5	3.5	Foil	stimuli/objects/foils/foil_1622.JPG	0	3#	New	1.210	0
224.0	3.5	First	stimuli/objects/setsof2/040a.jpg	40	3#	New	0.896	0
227.5	3.5	Lure	stimuli/objects/setsof2/144b.jpg	144	3#	New	0.974	3
231.0	3.5	First	stimuli/objects/setsof2/103a.jpg	103	3#	New	0.799	0
234.5	3.5	Lure	stimuli/objects/setsof2/054a.jpg	54	2@	Similar	1.306	1
238.0	3.5	Repeat	stimuli/objects/setsof2/065a.jpg	65	1!	Old	1.230	0
241.5	3.5	First	stimuli/objects/setsof2/105b.jpg	105	5%	None	1.737	0
245.0	3.5	First	stimuli/objects/setsof2/180a.jpg	180	3#	New	0.716	0
248.5	3.5	Lure	stimuli/objects/setsof2/103b.jpg	103	2@	Similar	0.874	1
252.0	3.5	Foil	stimuli/objects/foils/foil_1078.JPG	0	3#	New	0.871	0
255.5	3.5	First	stimuli/objects/setsof2/016b.jpg	16	3#	New	0.874	0
259.0	3.5	Lure	stimuli/objects/setsof2/012b.jpg	12	3#	New	0.937	1
262.5	3.5	Lure	stimuli/objects/setsof2/040b.jpg	40	2@	Similar	1.641	5
266.0	3.5	Lure	stimuli/objects/setsof2/006a.jpg	6	2@	Similar	1.626	2
269.5	3.5	First	stimuli/objects/setsof2/091b.jpg	91	2@	Similar	1.445	0
273.0	3.5	Foil	stimuli/objects/foils/foil_1433.JPG	0	3#	New	1.557	0
276.5	3.5	Repeat	stimuli/objects/setsof2/053b.jpg	53	3#	New	0.696	0
280.0	3.5	Repeat	stimuli/objects/setsof2/048a.jpg	48	3#	New	0.749	0
283.5	3.5	First	stimuli/objects/setsof2/166b.jpg	166	3#	New	0.623	0
287.0	3.5	First	stimuli/objects/setsof2/097a.jpg	97	3#	New	0.594	0
290.5	3.5	Repeat	stimuli/objects/setsof2/068a.jpg	68	1!	Old	1.143	0
294.0	3.5	Foil	stimuli/objects/foils/foil_1026.jpg	0	5%	None	1.735	0
297.5	3.5	Foil	stimuli/objects/foils/foil_1284.JPG	0	5%	None	1.735	0
301.0	3.5	First	stimuli/objects/setsof2/044b.jpg	44	3#	New	0.979	0
304.5	3.5	Lure	stimuli/objects/setsof2/105a.jpg	105	1!	Old	1.004	5
308.0	3.5	Repeat	stimuli/objects/setsof2/091b.jpg	91	1!	Old	1.082	0
311.5	3.5	First	stimuli/objects/setsof2/014b.jpg	14	5%	None	1.735	0
315.0	3.5	Repeat	stimuli/objects/setsof2/180a.jpg	180	5%	None	1.734	0
318.5	3.5	Lure	stimuli/objects/setsof2/166a.jpg	166	1!	Old	0.934	5
322.0	3.5	First	stimuli/objects/setsof2/156b.jpg	156	3#	New	1.187	0
325.5	3.5	Lure	stimuli/objects/setsof2/016a.jpg	16	3#	New	0.790	2
329.0	3.5	Repeat	stimuli/objects/setsof2/097a.jpg	97	1!	Old	1.031	0
332.5	3.5	Repeat	stimuli/objects/setsof2/044b.jpg	44	3#	New	1.180	0
336.0	3.5	First	stimuli/objects/setsof2/136a.jpg	136	3#	New	1.517	0
339.5	3.5	Foil	stimuli/objects/foils/foil_1282.JPG	0	3#	New	1.060	0
343.0	3.5	Repeat	stimuli/objects/setsof2/014b.jpg	14	3#	New	1.614	0
346.5	3.5	Foil	stimuli/objects/foils/foil_1632.JPG	0	3#	New	0.827	0
350.0	3.5	Foil	stimuli/objects/foils/foil_1216.JPG	0	5%	None	1.733	0
353.5	3.5	Foil	stimuli/objects/foils/foil_1289.JPG	0	3#	New	0.904	0
357.0	3.5	Foil	stimuli/objects/foils/foil_1692.JPG	0	3#	New	0.838	0
360.5	3.5	Foil	stimuli/objects/foils/foil_1368.JPG	0	3#	New	0.805	0
364.0	3.5	Repeat	stimuli/objects/setsof2/136a.jpg	136	1!	Old	0.826	0
367.5	3.5	Foil	stimuli/objects/foils/foil_1493.JPG	0	3#	New	1.392	0
371.0	3.5	Lure	stimuli/objects/setsof2/156a.jpg	156	1!	Old	1.016	5
