onset	duration	trial_type	stimulus_name	set_num	keypress	response	rt	similarity_bin
0.0	3.5	Foil	stimuli/objects/foils/foil_1487.JPG	0	3#	New	0.926	0
3.5	3.5	Foil	stimuli/objects/foils/foil_1343.JPG	0	3#	New	0.571	0
7.0	3.5	First	stimuli/objects/setsof2/141b.jpg	141	3#	New	0.687	0
10.5	3.5	Foil	stimuli/objects/foils/foil_1584.jpg	0	3#	New	0.541	0
14.0	3.5	Foil	stimuli/objects/foils/foil_1486.JPG	0	3#	New	0.634	0
17.5	3.5	Foil	stimuli/objects/foils/foil_1392.JPG	0	3#	New	0.777	0
21.0	3.5	First	stimuli/objects/setsof2/082a.jpg	82	3#	New	1.044	0
24.5	3.5	First	stimuli/objects/setsof2/102a.jpg	102	3#	New	1.141	0
28.0	3.5	Foil	stimuli/objects/foils/foil_1709.JPG	0	3#	New	0.819	0
31.5	3.5	Foil	stimuli/objects/foils/foil_1699.JPG	0	3#	New	0.850	0
35.0	3.5	First	stimuli/objects/setsof2/078a.jpg	78	3#	New	0.816	0
38.5	3.5	Lure	stimuli/objects/setsof2/141a.jpg	141	2@	Similar	1.011	3
42.0	3.5	Foil	stimuli/objects/foils/foil_1515.JPG	0	3#	New	0.824	0
45.5	3.5	Foil	stimuli/objects/foils/foil_1456.JPG	0	3#	New	0.837	0
49.0	3.5	First	stimuli/objects/setsof2/153a.jpg	153	3#	New	1.021	0
52.5	3.5	Lure	stimuli/objects/setsof2/082b.jpg	82	2@	Similar	0.983	1
56.0	3.5	First	stimuli/objects/setsof2/174b.jpg	174	3#	New	0.632	0
59.5	3.5	Foil	stimuli/objects/foils/foil_1694.jpg	0	3#	New	0.786	0
63.0	3.5	Foil	stimuli/objects/foils/foil_1350.JPG	0	3#	New	1.105	0
66.5	3.5	First	stimuli/objects/setsof2/133b.jpg	133	3#	New	1.699	0
70.0	3.5	Repeat	stimuli/objects/setsof2/078a.jpg	78	1!	Old	1.204	0
73.5	3.5	Foil	stimuli/objects/foils/foil_1631.JPG	0	3#	New	1.020	0
77.0	3.5	Foil	stimuli/objects/foils/foil_1396.JPG	0	3#	New	1.169	0
80.5	3.5	First	stimuli/objects/setsof2/084a.jpg	84	3#	New	0.738	0
84.0	3.5	Foil	stimuli/objects/foils/foil_1346.JPG	0	3#	New	0.814	0
87.5	3.5	First	stimuli/objects/setsof2/086a.jpg	86	3#	New	1.098	0
91.0	3.5	Repeat	stimuli/objects/setsof2/174b.jpg	174	1!	Old	1.667	0
94.5	3.5	Foil	stimuli/objects/foils/foil_1504.JPG	0	3#	New	1.055	0
98.0	3.5	First	stimuli/objects/setsof2/053a.jpg	53	3#	New	1.422	0
101.5	3.5	Foil	stimuli/objects/foils/foil_1481.JPG	0	3#	New	1.689	0
105.0	3.5	Foil	stimuli/objects/foils/foil_1313.JPG	0	3#	New	0.857	0
108.5	3.5	First	stimuli/objects/setsof2/155a.jpg	155	3#	New	0.905	0
112.0	3.5	Foil	stimuli/objects/foils/foil_1461.JPG	0	3#	New	0.837	0
115.5	3.5	Foil	stimuli/objects/foils/foil_1097.JPG	0	3#	New	0.779	0
119.0	3.5	First	stimuli/objects/setsof2/180a.jpg	180	3#	New	1.234	0
122.5	3.5	Repeat	stimuli/objects/setsof2/086a.jpg	86	1!	Old	1.477	0
126.0	3.5	Foil	stimuli/objects/foils/foil_1082.JPG	0	3#	New	0.823	0
129.5	3.5	Foil	stimuli/objects/foils/foil_1402.JPG	0	3#	New	1.037	0
133.0	3.5	Foil	stimuli/objects/foils/foil_1713.JPG	0	3#	New	0.824	0
136.5	3.5	First	stimuli/objects/setsof2/098b.jpg	98	5%	None	1.743	0
140.0	3.5	First	stimuli/objects/setsof2/125b.jpg	125	3#	New	1.004	0
143.5	3.5	Lure	stimuli/objects/setsof2/155b.jpg	155	2@	Similar	1.098	3
147.0	3.5	Foil	stimuli/objects/foils/foil_1011.jpg	0	3#	New	1.592	0
150.5	3.5	First	stimuli/objects/setsof2/061b.jpg	61	3#	New	1.043	0
154.0	3.5	Foil	stimuli/objects/foils/foil_1607.JPG	0	3#	New	1.277	0
157.5	3.5	Foil	stimuli/objects/foils/foil_1329.JPG	0	3#	New	1.201	0
161.0	3.5	First	stimuli/objects/setsof2/067a.jpg	67	3#	New	1.171	0
164.5	3.5	Repeat	stimuli/objects/setsof2/102a.jpg	102	1!	Old	1.183	0
168.0	3.5	Foil	stimuli/objects/foils/foil_1281.JPG	0	3#	New	0.710	0
171.5	3.5	First	stimuli/objects/setsof2/112a.jpg	112	3#	New	0.768	0
175.0	3.5	Foil	stimuli/objects/foils/foil_1398.JPG	0	3#	New	0.697	0
178.5	3.5	Foil	stimuli/objects/foils/foil_1724.JPG	0	3#	New	0.714	0
182.0	3.5	First	stimuli/objects/setsof2/031a.jpg	31	3#	New	0.776	0
185.5	3.5	Repeat	stimuli/objects/setsof2/153a.jpg	153	5%	None	1.741	0
189.0	3.5	Foil	stimuli/objects/foils/foil_1371.JPG	0	3#	New	0.664	0
192.5	3.5	First	stimuli/objects/setsof2/029a.jpg	29	3#	New	0.955	0
196.0	3.5	Foil	stimuli/objects/foils/foil_1354.JPG	0	3#	New	0.871	0
199.5	3.5	Repeat	stimuli/objects/setsof2/098b.jpg	98	5%	None	1.739	0
203.0	3.5	Lure	stimuli/objects/setsof2/067b.jpg	67	2@	Similar	1.643	4
206.5	3.5	First	stimuli/objects/setsof2/091a.jpg	91	3#	New	0.724	0
210.0	3.5	Foil	stimuli/objects/foils/foil_1545.JPG	0	3#	New	1.693	0
213.5	3.5	Lure	stimuli/objects/setsof2/133a.jpg	133	5%	None	1.739	2
217.0	3.5	Repeat	stimuli/objects/setsof2/084a.jpg	84	1!	Old	1.175	0
220.5	3.5	First	stimuli/objects/setsof2/042a.jpg	42	3#	New	0.764	0
224.0	3.5	First	stimuli/objects/setsof2/165b.jpg	165	3#	New	0.776	0
227.5	3.5	Lure	stimuli/objects/setsof2/061a.jpg	61	1!	Old	1.155	5
231.0	3.5	Foil	stimuli/objects/foils/foil_1535.JPG	0	3#	New	0.894	0
234.5	3.5	Foil	stimuli/objects/foils/foil_1443.JPG	0	3#	New	1.051	0
238.0	3.5	First	stimuli/objects/setsof2/035b.jpg	35	5%	None	1.737	0
241.5	3.5	Repeat	stimuli/objects/setsof2/112a.jpg	112	1!	Old	1.157	0
245.0	3.5	First	stimuli/objects/setsof2/069a.jpg	69	3#	New	0.832	0
248.5	3.5	Repeat	stimuli/objects/setsof2/042a.jpg	42	1!	Old	1.557	0
252.0	3.5	Lure	stimuli/objects/setsof2/053b.jpg	53	5%	None	1.737	4
255.5	3.5	First	stimuli/objects/setsof2/185a.jpg	185	3#	New	0.859	0
259.0	3.5	Repeat	stimuli/objects/setsof2/180a.jpg	180	1!	Old	1.241	0
262.5	3.5	Foil	stimuli/objects/foils/foil_1340.JPG	0	3#	New	1.472	0
266.0	3.5	Repeat	stimuli/objects/setsof2/031a.jpg	31	2@	Similar	1.169	0
269.5	3.5	Lure	stimuli/objects/setsof2/035a.jpg	35	5%	None	1.736	3
273.0	3.5	First	stimuli/objects/setsof2/191b.jpg	191	3#	New	1.098	0
276.5	3.5	Repeat	stimuli/objects/setsof2/091a.jpg	91	1!	Old	1.203	0
280.0	3.5	First	stimuli/objects/setsof2/183b.jpg	183	3#	New	1.335	0
283.5	3.5	Lure	stimuli/objects/setsof2/125a.jpg	125	2@	Similar	1.223	2
287.0	3.5	First	stimuli/objects/setsof2/079a.jpg	79	3#	New	1.128	0
290.5	3.5	Lure	stimuli/objects/setsof2/185b.jpg	185	5%	None	1.735	1
294.0	3.5	Lure	stimuli/objects/setsof2/165a.jpg	165	2@	Similar	1.517	1
297.5	3.5	Foil	stimuli/objects/foils/foil_1335.JPG	0	2@	Similar	1.618	0
301.0	3.5	First	stimuli/objects/setsof2/128b.jpg	128	3#	New	0.812	0
304.5	3.5	Repeat	stimuli/objects/setsof2/191b.jpg	191	1!	Old	0.851	0
308.0	3.5	First	stimuli/objects/setsof2/122b.jpg	122	3#	New	0.981	0
311.5	3.5	Lure	stimuli/objects/setsof2/183a.jpg	183	1!	Old	1.527	6
315.0	3.5	Foil	stimuli/objects/foils/foil_1217.JPG	0	3#	New	0.856	0
318.5	3.5	First	stimuli/objects/setsof2/045b.jpg	45	3#	New	1.257	0
322.0	3.5	Lure	stimuli/objects/setsof2/069b.jpg	69	5%	None	1.733	2
325.5	3.5	Lure	stimuli/objects/setsof2/079b.jpg	79	5%	None	1.733	2
329.0	3.5	Foil	stimuli/objects/foils/foil_1289.JPG	0	5%	None	1.732	0
332.5	3.5	Repeat	stimuli/objects/setsof2/029a.jpg	29	5%	None	1.732	0
336.0	3.5	Foil	stimuli/objects/foils/foil_1010.jpg	0	3#	New	1.112	0
339.5	3.5	Foil	stimuli/objects/foils/foil_1359.JPG	0	3#	New	0.923	0
343.0	3.5	First	stimuli/objects/setsof2/021a.jpg	21	3#	New	0.945	0
346.5	3.5	Foil	stimuli/objects/foils/foil_1494.JPG	0	3#	New	0.871	0
350.0	3.5	Lure	stimuli/objects/setsof2/122a.jpg	122	5%	None	1.732	3
353.5	3.5	Foil	stimuli/objects/foils/foil_1422.JPG	0	3#	New	1.163	0
357.0	3.5	Foil	stimuli/objects/foils/foil_1092.JPG	0	3#	New	0.761	0
360.5	3.5	Repeat	stimuli/objects/setsof2/045b.jpg	45	1!	Old	1.133	0
364.0	3.5	Lure	stimuli/objects/setsof2/021b.jpg	21	5%	None	1.731	6
367.5	3.5	Foil	stimuli/objects/foils/foil_1137.JPG	0	3#	New	0.896	0
371.0	3.5	Repeat	stimuli/objects/setsof2/128b.jpg	128	1!	Old	1.163	0
