onset	duration	trial_type	stimulus_name	set_num	keypress	response	rt	similarity_bin
0.0	3.5	Foil	stimuli/objects/foils/foil_1179.JPG	0	3#	New	1.137	0
3.5	3.5	Foil	stimuli/objects/foils/foil_1183.JPG	0	3#	New	0.546	0
7.0	3.5	First	stimuli/objects/setsof2/072a.jpg	72	3#	New	0.769	0
10.5	3.5	Foil	stimuli/objects/foils/foil_1249.JPG	0	3#	New	0.738	0
14.0	3.5	First	stimuli/objects/setsof2/092a.jpg	92	3#	New	0.647	0
17.5	3.5	Foil	stimuli/objects/foils/foil_1409.JPG	0	3#	New	0.882	0
21.0	3.5	Foil	stimuli/objects/foils/foil_1514.JPG	0	3#	New	0.711	0
24.5	3.5	First	stimuli/objects/setsof2/108a.jpg	108	3#	New	0.843	0
28.0	3.5	Foil	stimuli/objects/foils/foil_1312.JPG	0	3#	New	0.667	0
31.5	3.5	Foil	stimuli/objects/foils/foil_1131.JPG	0	3#	New	0.820	0
35.0	3.5	First	stimuli/objects/setsof2/086b.jpg	86	3#	New	0.710	0
38.5	3.5	Repeat	stimuli/objects/setsof2/072a.jpg	72	5%	None	1.743	0
42.0	3.5	Foil	stimuli/objects/foils/foil_1242.JPG	0	3#	New	0.700	0
45.5	3.5	First	stimuli/objects/setsof2/029a.jpg	29	3#	New	1.134	0
49.0	3.5	Repeat	stimuli/objects/setsof2/092a.jpg	92	1!	Old	1.270	0
52.5	3.5	Foil	stimuli/objects/foils/foil_1036.JPG	0	3#	New	0.780	0
56.0	3.5	First	stimuli/objects/setsof2/050b.jpg	50	3#	New	0.791	0
59.5	3.5	Repeat	stimuli/objects/setsof2/108a.jpg	108	2@	Similar	1.658	0
63.0	3.5	Foil	stimuli/objects/foils/foil_1142.JPG	0	3#	New	0.787	0
66.5	3.5	First	stimuli/objects/setsof2/152b.jpg	152	3#	New	0.911	0
70.0	3.5	Foil	stimuli/objects/foils/foil_1604.JPG	0	3#	New	0.643	0
73.5	3.5	Repeat	stimuli/objects/setsof2/086b.jpg	86	1!	Old	1.477	0
77.0	3.5	First	stimuli/objects/setsof2/059a.jpg	59	3#	New	0.759	0
80.5	3.5	Foil	stimuli/objects/foils/foil_1617.JPG	0	3#	New	0.664	0
84.0	3.5	Repeat	stimuli/objects/setsof2/029a.jpg	29	1!	Old	1.169	0
87.5	3.5	Foil	stimuli/objects/foils/foil_1174.JPG	0	3#	New	0.913	0
91.0	3.5	First	stimuli/objects/setsof2/027b.jpg	27	3#	New	0.645	0
94.5	3.5	Foil	stimuli/objects/foils/foil_1089.JPG	0	3#	New	1.018	0
98.0	3.5	First	stimuli/objects/setsof2/052a.jpg	52	3#	New	0.846	0
101.5	3.5	Lure	stimuli/objects/setsof2/152a.jpg	152	5%	None	1.741	1
105.0	3.5	Foil	stimuli/objects/foils/foil_1358.JPG	0	3#	New	0.671	0
108.5	3.5	Foil	stimuli/objects/foils/foil_1704.JPG	0	3#	New	0.684	0
112.0	3.5	Foil	stimuli/objects/foils/foil_1647.JPG	0	3#	New	0.693	0
115.5	3.5	First	stimuli/objects/setsof2/067a.jpg	67	3#	New	0.884	0
119.0	3.5	First	stimuli/objects/setsof2/094b.jpg	94	3#	New	0.753	0
122.5	3.5	Lure	stimuli/objects/setsof2/027a.jpg	27	5%	None	1.740	6
126.0	3.5	Foil	stimuli/objects/foils/foil_1005.jpg	0	3#	New	0.951	0
129.5	3.5	Foil	stimuli/objects/foils/foil_1255.JPG	0	3#	New	0.872	0
133.0	3.5	Foil	stimuli/objects/foils/foil_1563.JPG	0	3#	New	0.714	0
136.5	3.5	First	stimuli/objects/setsof2/142a.jpg	142	3#	New	1.239	0
140.0	3.5	First	stimuli/objects/setsof2/065b.jpg	65	3#	New	0.867	0
143.5	3.5	Foil	stimuli/objects/foils/foil_1119.JPG	0	3#	New	1.102	0
147.0	3.5	Foil	stimuli/objects/foils/foil_1362.JPG	0	3#	New	0.943	0
150.5	3.5	First	stimuli/objects/setsof2/030a.jpg	30	3#	New	0.644	0
154.0	3.5	Lure	stimuli/objects/setsof2/094a.jpg	94	1!	Old	1.389	6
157.5	3.5	Foil	stimuli/objects/foils/foil_1611.JPG	0	3#	New	0.643	0
161.0	3.5	First	stimuli/objects/setsof2/004a.jpg	4	3#	New	0.770	0
164.5	3.5	Foil	stimuli/objects/foils/foil_1432.JPG	0	3#	New	0.736	0
168.0	3.5	Foil	stimuli/objects/foils/foil_1393.JPG	0	3#	New	1.360	0
171.5	3.5	Foil	stimuli/objects/foils/foil_1489.JPG	0	3#	New	0.825	0
175.0	3.5	Lure	stimuli/objects/setsof2/065a.jpg	65	2@	Similar	1.341	2
178.5	3.5	Foil	stimuli/objects/foils/foil_1281.JPG	0	3#	New	0.594	0
182.0	3.5	First	stimuli/objects/setsof2/026a.jpg	26	3#	New	0.695	0
185.5	3.5	Foil	stimuli/objects/foils/foil_1117.JPG	0	3#	New	0.612	0
189.0	3.5	First	stimuli/objects/setsof2/117b.jpg	117	3#	New	0.645	0
192.5	3.5	Foil	stimuli/objects/foils/foil_1002.jpg	0	3#	New	1.277	0
196.0	3.5	Lure	stimuli/objects/setsof2/050a.jpg	50	5%	None	1.737	6
199.5	3.5	First	stimuli/objects/setsof2/060b.jpg	60	3#	New	0.755	0
203.0	3.5	First	stimuli/objects/setsof2/023a.jpg	23	3#	New	0.650	0
206.5	3.5	Foil	stimuli/objects/foils/foil_1459.JPG	0	3#	New	0.709	0
210.0	3.5	Foil	stimuli/objects/foils/foil_1050.jpg	0	3#	New	0.691	0
213.5	3.5	First	stimuli/objects/setsof2/025a.jpg	25	3#	New	0.713	0
217.0	3.5	Foil	stimuli/objects/foils/foil_1148.JPG	0	3#	New	0.638	0
220.5	3.5	Lure	stimuli/objects/setsof2/059b.jpg	59	3#	New	0.712	1
224.0	3.5	First	stimuli/objects/setsof2/032b.jpg	32	3#	New	1.085	0
227.5	3.5	Foil	stimuli/objects/foils/foil_1165.JPG	0	3#	New	0.572	0
231.0	3.5	Repeat	stimuli/objects/setsof2/004a.jpg	4	1!	Old	1.394	0
234.5	3.5	Foil	stimuli/objects/foils/foil_1170.JPG	0	3#	New	0.926	0
238.0	3.5	Repeat	stimuli/objects/setsof2/052a.jpg	52	1!	Old	1.403	0
241.5	3.5	First	stimuli/objects/setsof2/024a.jpg	24	3#	New	0.806	0
245.0	3.5	Foil	stimuli/objects/foils/foil_1633.JPG	0	3#	New	0.746	0
248.5	3.5	First	stimuli/objects/setsof2/110a.jpg	110	3#	New	1.185	0
252.0	3.5	Lure	stimuli/objects/setsof2/026b.jpg	26	2@	Similar	1.225	6
255.5	3.5	Lure	stimuli/objects/setsof2/067b.jpg	67	2@	Similar	1.427	4
259.0	3.5	First	stimuli/objects/setsof2/069b.jpg	69	3#	New	0.957	0
262.5	3.5	Lure	stimuli/objects/setsof2/032a.jpg	32	5%	None	1.734	4
266.0	3.5	First	stimuli/objects/setsof2/174a.jpg	174	2@	Similar	1.207	0
269.5	3.5	Lure	stimuli/objects/setsof2/142b.jpg	142	3#	New	0.706	5
273.0	3.5	Repeat	stimuli/objects/setsof2/023a.jpg	23	1!	Old	1.357	0
276.5	3.5	First	stimuli/objects/setsof2/009b.jpg	9	3#	New	0.837	0
280.0	3.5	Foil	stimuli/objects/foils/foil_1239.JPG	0	3#	New	0.633	0
283.5	3.5	Lure	stimuli/objects/setsof2/025b.jpg	25	1!	Old	1.367	4
287.0	3.5	Repeat	stimuli/objects/setsof2/110a.jpg	110	3#	New	0.956	0
290.5	3.5	First	stimuli/objects/setsof2/062b.jpg	62	3#	New	0.837	0
294.0	3.5	Foil	stimuli/objects/foils/foil_1121.JPG	0	3#	New	0.791	0
297.5	3.5	First	stimuli/objects/setsof2/155a.jpg	155	3#	New	0.785	0
301.0	3.5	Lure	stimuli/objects/setsof2/174b.jpg	174	1!	Old	1.298	6
304.5	3.5	Repeat	stimuli/objects/setsof2/024a.jpg	24	5%	None	1.732	0
308.0	3.5	Repeat	stimuli/objects/setsof2/030a.jpg	30	1!	Old	0.928	0
311.5	3.5	Lure	stimuli/objects/setsof2/117a.jpg	117	5%	None	1.732	2
315.0	3.5	First	stimuli/objects/setsof2/135b.jpg	135	3#	New	0.658	0
318.5	3.5	Foil	stimuli/objects/foils/foil_1176.JPG	0	3#	New	0.666	0
322.0	3.5	Lure	stimuli/objects/setsof2/062a.jpg	62	2@	Similar	1.159	2
325.5	3.5	First	stimuli/objects/setsof2/035a.jpg	35	3#	New	0.818	0
329.0	3.5	First	stimuli/objects/setsof2/160a.jpg	160	3#	New	0.858	0
332.5	3.5	Lure	stimuli/objects/setsof2/060a.jpg	60	2@	Similar	1.405	3
336.0	3.5	Lure	stimuli/objects/setsof2/069a.jpg	69	2@	Similar	0.999	2
339.5	3.5	Foil	stimuli/objects/foils/foil_1413.JPG	0	3#	New	0.978	0
343.0	3.5	Foil	stimuli/objects/foils/foil_1326.jpg	0	3#	New	1.398	0
346.5	3.5	Repeat	stimuli/objects/setsof2/009b.jpg	9	1!	Old	1.581	0
350.0	3.5	Repeat	stimuli/objects/setsof2/135b.jpg	135	1!	Old	1.141	0
353.5	3.5	Foil	stimuli/objects/foils/foil_1637.JPG	0	3#	New	0.732	0
357.0	3.5	Foil	stimuli/objects/foils/foil_1330.JPG	0	3#	New	1.696	0
360.5	3.5	Foil	stimuli/objects/foils/foil_1627.jpg	0	3#	New	0.733	0
364.0	3.5	Repeat	stimuli/objects/setsof2/035a.jpg	35	1!	Old	1.185	0
367.5	3.5	Repeat	stimuli/objects/setsof2/155a.jpg	155	1!	Old	1.084	0
371.0	3.5	Repeat	stimuli/objects/setsof2/160a.jpg	160	1!	Old	0.839	0
