onset	duration	trial_type	stimulus_name	set_num	keypress	response	rt	similarity_bin
0.0	3.5	Foil	stimuli/objects/foils/foil_1510.JPG	0	5%	None	1.696	0
3.5	3.5	Foil	stimuli/objects/foils/foil_1281.JPG	0	3#	New	1.038	0
7.0	3.5	Foil	stimuli/objects/foils/foil_1018.jpg	0	3#	New	1.014	0
10.5	3.5	First	stimuli/objects/setsof2/150a.jpg	150	3#	New	0.931	0
14.0	3.5	Foil	stimuli/objects/foils/foil_1070.JPG	0	3#	New	1.147	0
17.5	3.5	Foil	stimuli/objects/foils/foil_1175.JPG	0	3#	New	1.044	0
21.0	3.5	Foil	stimuli/objects/foils/foil_1709.JPG	0	3#	New	1.093	0
24.5	3.5	First	stimuli/objects/setsof2/172a.jpg	172	3#	New	0.932	0
28.0	3.5	Foil	stimuli/objects/foils/foil_1090.JPG	0	3#	New	1.016	0
31.5	3.5	Foil	stimuli/objects/foils/foil_1531.JPG	0	3#	New	1.256	0
35.0	3.5	First	stimuli/objects/setsof2/005b.jpg	5	3#	New	0.923	0
38.5	3.5	First	stimuli/objects/setsof2/126b.jpg	126	3#	New	0.973	0
42.0	3.5	Foil	stimuli/objects/foils/foil_1688.JPG	0	3#	New	1.012	0
45.5	3.5	First	stimuli/objects/setsof2/141b.jpg	141	3#	New	1.106	0
49.0	3.5	Foil	stimuli/objects/foils/foil_1240.JPG	0	3#	New	1.137	0
52.5	3.5	Foil	stimuli/objects/foils/foil_1027.JPG	0	3#	New	0.999	0
56.0	3.5	Foil	stimuli/objects/foils/foil_1358.JPG	0	3#	New	1.097	0
59.5	3.5	Lure	stimuli/objects/setsof2/005a.jpg	5	2@	Similar	1.525	3
63.0	3.5	Foil	stimuli/objects/foils/foil_1676.JPG	0	3#	New	0.992	0
66.5	3.5	First	stimuli/objects/setsof2/175a.jpg	175	3#	New	0.930	0
70.0	3.5	Foil	stimuli/objects/foils/foil_1635.JPG	0	3#	New	0.841	0
73.5	3.5	Foil	stimuli/objects/foils/foil_1110.JPG	0	3#	New	0.764	0
77.0	3.5	First	stimuli/objects/setsof2/101b.jpg	101	3#	New	0.924	0
80.5	3.5	First	stimuli/objects/setsof2/034a.jpg	34	3#	New	1.052	0
84.0	3.5	Foil	stimuli/objects/foils/foil_1418.JPG	0	3#	New	0.796	0
87.5	3.5	First	stimuli/objects/setsof2/143b.jpg	143	3#	New	0.798	0
91.0	3.5	Foil	stimuli/objects/foils/foil_1271.JPG	0	3#	New	0.953	0
94.5	3.5	Foil	stimuli/objects/foils/foil_1266.JPG	0	3#	New	0.811	0
98.0	3.5	Foil	stimuli/objects/foils/foil_1259.JPG	0	3#	New	0.820	0
101.5	3.5	First	stimuli/objects/setsof2/071a.jpg	71	3#	New	0.971	0
105.0	3.5	Lure	stimuli/objects/setsof2/175b.jpg	175	1!	Old	1.167	5
108.5	3.5	Foil	stimuli/objects/foils/foil_1156.JPG	0	3#	New	1.339	0
112.0	3.5	Lure	stimuli/objects/setsof2/101a.jpg	101	2@	Similar	1.575	2
115.5	3.5	Foil	stimuli/objects/foils/foil_1302.JPG	0	5%	None	1.741	0
119.0	3.5	First	stimuli/objects/setsof2/018a.jpg	18	3#	New	1.201	0
122.5	3.5	Lure	stimuli/objects/setsof2/143a.jpg	143	1!	Old	1.196	4
126.0	3.5	Foil	stimuli/objects/foils/foil_1224.JPG	0	3#	New	1.100	0
129.5	3.5	First	stimuli/objects/setsof2/156a.jpg	156	3#	New	0.818	0
133.0	3.5	First	stimuli/objects/setsof2/072b.jpg	72	3#	New	1.031	0
136.5	3.5	Foil	stimuli/objects/foils/foil_1640.JPG	0	5%	None	1.740	0
140.0	3.5	Foil	stimuli/objects/foils/foil_1466.JPG	0	3#	New	0.748	0
143.5	3.5	First	stimuli/objects/setsof2/042b.jpg	42	3#	New	0.802	0
147.0	3.5	Repeat	stimuli/objects/setsof2/150a.jpg	150	1!	Old	1.459	0
150.5	3.5	Foil	stimuli/objects/foils/foil_1371.JPG	0	3#	New	0.905	0
154.0	3.5	First	stimuli/objects/setsof2/041b.jpg	41	3#	New	1.052	0
157.5	3.5	Repeat	stimuli/objects/setsof2/172a.jpg	172	1!	Old	1.094	0
161.0	3.5	Foil	stimuli/objects/foils/foil_1675.JPG	0	3#	New	0.854	0
164.5	3.5	First	stimuli/objects/setsof2/180a.jpg	180	3#	New	0.922	0
168.0	3.5	Foil	stimuli/objects/foils/foil_1445.JPG	0	3#	New	0.919	0
171.5	3.5	First	stimuli/objects/setsof2/191b.jpg	191	3#	New	0.889	0
175.0	3.5	Repeat	stimuli/objects/setsof2/126b.jpg	126	1!	Old	1.037	0
178.5	3.5	Repeat	stimuli/objects/setsof2/072b.jpg	72	5%	None	1.739	0
182.0	3.5	Repeat	stimuli/objects/setsof2/156a.jpg	156	1!	Old	1.313	0
185.5	3.5	Repeat	stimuli/objects/setsof2/141b.jpg	141	1!	Old	1.547	0
189.0	3.5	Repeat	stimuli/objects/setsof2/018a.jpg	18	1!	Old	1.530	0
192.5	3.5	First	stimuli/objects/setsof2/028b.jpg	28	3#	New	1.006	0
196.0	3.5	First	stimuli/objects/setsof2/100b.jpg	100	3#	New	1.265	0
199.5	3.5	Foil	stimuli/objects/foils/foil_1130.JPG	0	3#	New	1.054	0
203.0	3.5	First	stimuli/objects/setsof2/168b.jpg	168	3#	New	1.159	0
206.5	3.5	Repeat	stimuli/objects/setsof2/034a.jpg	34	1!	Old	1.365	0
210.0	3.5	Lure	stimuli/objects/setsof2/042a.jpg	42	1!	Old	1.657	3
213.5	3.5	Foil	stimuli/objects/foils/foil_1584.jpg	0	3#	New	0.839	0
217.0	3.5	Foil	stimuli/objects/foils/foil_1620.JPG	0	3#	New	1.496	0
220.5	3.5	Repeat	stimuli/objects/setsof2/041b.jpg	41	5%	None	1.737	0
224.0	3.5	First	stimuli/objects/setsof2/029a.jpg	29	3#	New	0.999	0
227.5	3.5	Lure	stimuli/objects/setsof2/028a.jpg	28	1!	Old	1.077	6
231.0	3.5	Lure	stimuli/objects/setsof2/180b.jpg	180	1!	Old	1.358	6
234.5	3.5	First	stimuli/objects/setsof2/117a.jpg	117	3#	New	0.908	0
238.0	3.5	Lure	stimuli/objects/setsof2/071b.jpg	71	5%	None	1.736	5
241.5	3.5	Foil	stimuli/objects/foils/foil_1014.jpg	0	3#	New	1.112	0
245.0	3.5	First	stimuli/objects/setsof2/075b.jpg	75	3#	New	0.901	0
248.5	3.5	First	stimuli/objects/setsof2/015a.jpg	15	3#	New	0.730	0
252.0	3.5	Foil	stimuli/objects/foils/foil_1614.JPG	0	3#	New	0.872	0
255.5	3.5	Lure	stimuli/objects/setsof2/015b.jpg	15	5%	None	1.735	2
259.0	3.5	Repeat	stimuli/objects/setsof2/029a.jpg	29	1!	Old	1.646	0
262.5	3.5	Foil	stimuli/objects/foils/foil_1291.JPG	0	5%	None	1.735	0
266.0	3.5	First	stimuli/objects/setsof2/032b.jpg	32	3#	New	1.183	0
269.5	3.5	First	stimuli/objects/setsof2/030a.jpg	30	3#	New	0.946	0
273.0	3.5	Repeat	stimuli/objects/setsof2/168b.jpg	168	1!	Old	1.424	0
276.5	3.5	First	stimuli/objects/setsof2/070b.jpg	70	5%	None	1.735	0
280.0	3.5	Repeat	stimuli/objects/setsof2/117a.jpg	117	1!	Old	1.534	0
283.5	3.5	Lure	stimuli/objects/setsof2/075a.jpg	75	5%	None	1.734	5
287.0	3.5	First	stimuli/objects/setsof2/134a.jpg	134	3#	New	1.561	0
290.5	3.5	Foil	stimuli/objects/foils/foil_1336.JPG	0	3#	New	1.263	0
294.0	3.5	Foil	stimuli/objects/foils/foil_1178.JPG	0	3#	New	1.154	0
297.5	3.5	Repeat	stimuli/objects/setsof2/030a.jpg	30	1!	Old	1.276	0
301.0	3.5	First	stimuli/objects/setsof2/105a.jpg	105	3#	New	0.948	0
304.5	3.5	Foil	stimuli/objects/foils/foil_1502.JPG	0	3#	New	1.004	0
308.0	3.5	First	stimuli/objects/setsof2/188a.jpg	188	3#	New	0.798	0
311.5	3.5	Lure	stimuli/objects/setsof2/032a.jpg	32	5%	None	1.733	4
315.0	3.5	Foil	stimuli/objects/foils/foil_1355.JPG	0	3#	New	1.207	0
318.5	3.5	First	stimuli/objects/setsof2/095b.jpg	95	1!	Old	1.373	0
322.0	3.5	Lure	stimuli/objects/setsof2/191a.jpg	191	1!	Old	1.685	5
325.5	3.5	Foil	stimuli/objects/foils/foil_1016.jpg	0	5%	None	1.732	0
329.0	3.5	First	stimuli/objects/setsof2/151b.jpg	151	5%	None	1.732	0
332.5	3.5	Lure	stimuli/objects/setsof2/105b.jpg	105	2@	Similar	1.292	5
336.0	3.5	Foil	stimuli/objects/foils/foil_1447.JPG	0	3#	New	1.018	0
339.5	3.5	Foil	stimuli/objects/foils/foil_1147.JPG	0	3#	New	1.456	0
343.0	3.5	Lure	stimuli/objects/setsof2/188b.jpg	188	1!	Old	1.472	4
346.5	3.5	Repeat	stimuli/objects/setsof2/070b.jpg	70	1!	Old	1.645	0
350.0	3.5	Foil	stimuli/objects/foils/foil_1117.JPG	0	3#	New	1.347	0
353.5	3.5	Lure	stimuli/objects/setsof2/095a.jpg	95	1!	Old	1.638	6
357.0	3.5	Repeat	stimuli/objects/setsof2/100b.jpg	100	1!	Old	1.076	0
360.5	3.5	Repeat	stimuli/objects/setsof2/134a.jpg	134	1!	Old	1.054	0
364.0	3.5	Foil	stimuli/objects/foils/foil_1539.JPG	0	3#	New	1.572	0
367.5	3.5	Foil	stimuli/objects/foils/foil_1413.JPG	0	3#	New	1.444	0
371.0	3.5	Lure	stimuli/objects/setsof2/151a.jpg	151	1!	Old	1.088	6
