onset	duration	trial_type	stimulus_name	set_num	keypress	response	rt	similarity_bin
0.0	3.5	Foil	stimuli/objects/foils/foil_1502.JPG	0	3#	New	1.252	0
3.5	3.5	First	stimuli/objects/setsof2/180b.jpg	180	3#	New	0.596	0
7.0	3.5	Foil	stimuli/objects/foils/foil_1042.JPG	0	3#	New	0.610	0
10.5	3.5	Foil	stimuli/objects/foils/foil_1018.jpg	0	3#	New	0.471	0
14.0	3.5	Foil	stimuli/objects/foils/foil_1497.JPG	0	3#	New	0.388	0
17.5	3.5	First	stimuli/objects/setsof2/142b.jpg	142	3#	New	0.473	0
21.0	3.5	Foil	stimuli/objects/foils/foil_1127.JPG	0	3#	New	0.530	0
24.5	3.5	First	stimuli/objects/setsof2/156b.jpg	156	3#	New	0.536	0
28.0	3.5	Foil	stimuli/objects/foils/foil_1323.JPG	0	3#	New	0.643	0
31.5	3.5	Foil	stimuli/objects/foils/foil_1443.JPG	0	3#	New	0.609	0
35.0	3.5	Foil	stimuli/objects/foils/foil_1435.JPG	0	3#	New	0.535	0
38.5	3.5	Lure	stimuli/objects/setsof2/180a.jpg	180	1!	Old	0.942	6
42.0	3.5	Foil	stimuli/objects/foils/foil_1599.JPG	0	3#	New	0.756	0
45.5	3.5	First	stimuli/objects/setsof2/176b.jpg	176	3#	New	0.611	0
49.0	3.5	First	stimuli/objects/setsof2/107a.jpg	107	3#	New	1.290	0
52.5	3.5	Foil	stimuli/objects/foils/foil_1441.JPG	0	3#	New	0.528	0
56.0	3.5	First	stimuli/objects/setsof2/163b.jpg	163	3#	New	1.452	0
59.5	3.5	Repeat	stimuli/objects/setsof2/142b.jpg	142	1!	Old	0.883	0
63.0	3.5	Foil	stimuli/objects/foils/foil_1152.JPG	0	3#	New	0.563	0
66.5	3.5	First	stimuli/objects/setsof2/089b.jpg	89	3#	New	0.743	0
70.0	3.5	Repeat	stimuli/objects/setsof2/176b.jpg	176	1!	Old	0.975	0
73.5	3.5	Lure	stimuli/objects/setsof2/156a.jpg	156	2@	Similar	1.046	5
77.0	3.5	First	stimuli/objects/setsof2/087b.jpg	87	3#	New	0.710	0
80.5	3.5	Foil	stimuli/objects/foils/foil_1032.JPG	0	3#	New	0.976	0
84.0	3.5	Lure	stimuli/objects/setsof2/107b.jpg	107	2@	Similar	1.040	3
87.5	3.5	Foil	stimuli/objects/foils/foil_1604.JPG	0	3#	New	0.834	0
91.0	3.5	Lure	stimuli/objects/setsof2/163a.jpg	163	2@	Similar	1.029	5
94.5	3.5	First	stimuli/objects/setsof2/162a.jpg	162	3#	New	0.597	0
98.0	3.5	First	stimuli/objects/setsof2/110a.jpg	110	3#	New	0.876	0
101.5	3.5	Repeat	stimuli/objects/setsof2/089b.jpg	89	1!	Old	1.053	0
105.0	3.5	Foil	stimuli/objects/foils/foil_1311.JPG	0	3#	New	0.561	0
108.5	3.5	First	stimuli/objects/setsof2/055a.jpg	55	3#	New	0.531	0
112.0	3.5	Foil	stimuli/objects/foils/foil_1220.JPG	0	3#	New	0.654	0
115.5	3.5	Foil	stimuli/objects/foils/foil_1284.JPG	0	3#	New	0.463	0
119.0	3.5	First	stimuli/objects/setsof2/170a.jpg	170	3#	New	0.545	0
122.5	3.5	Foil	stimuli/objects/foils/foil_1256.JPG	0	3#	New	0.600	0
126.0	3.5	Foil	stimuli/objects/foils/foil_1444.JPG	0	3#	New	0.430	0
129.5	3.5	First	stimuli/objects/setsof2/098a.jpg	98	3#	New	0.561	0
133.0	3.5	Foil	stimuli/objects/foils/foil_1269.JPG	0	3#	New	0.616	0
136.5	3.5	Foil	stimuli/objects/foils/foil_1446.JPG	0	3#	New	0.557	0
140.0	3.5	First	stimuli/objects/setsof2/023a.jpg	23	3#	New	0.675	0
143.5	3.5	Foil	stimuli/objects/foils/foil_1066.JPG	0	3#	New	0.795	0
147.0	3.5	Foil	stimuli/objects/foils/foil_1614.JPG	0	3#	New	0.648	0
150.5	3.5	Foil	stimuli/objects/foils/foil_1478.JPG	0	3#	New	0.672	0
154.0	3.5	First	stimuli/objects/setsof2/161b.jpg	161	3#	New	0.696	0
157.5	3.5	Repeat	stimuli/objects/setsof2/170a.jpg	170	1!	Old	0.951	0
161.0	3.5	First	stimuli/objects/setsof2/159a.jpg	159	3#	New	1.081	0
164.5	3.5	Foil	stimuli/objects/foils/foil_1674.JPG	0	3#	New	1.691	0
168.0	3.5	Foil	stimuli/objects/foils/foil_1625.JPG	0	3#	New	0.800	0
171.5	3.5	Foil	stimuli/objects/foils/foil_1248.JPG	0	3#	New	0.842	0
175.0	3.5	First	stimuli/objects/setsof2/030a.jpg	30	3#	New	0.729	0
178.5	3.5	Foil	stimuli/objects/foils/foil_1081.JPG	0	3#	New	0.673	0
182.0	3.5	First	stimuli/objects/setsof2/132b.jpg	132	3#	New	0.684	0
185.5	3.5	Foil	stimuli/objects/foils/foil_1415.JPG	0	3#	New	0.654	0
189.0	3.5	Lure	stimuli/objects/setsof2/023b.jpg	23	2@	Similar	1.095	3
192.5	3.5	Foil	stimuli/objects/foils/foil_1645.JPG	0	3#	New	0.503	0
196.0	3.5	First	stimuli/objects/setsof2/041a.jpg	41	3#	New	0.586	0
199.5	3.5	Foil	stimuli/objects/foils/foil_1287.JPG	0	2@	Similar	1.499	0
203.0	3.5	Foil	stimuli/objects/foils/foil_1592.JPG	0	3#	New	0.971	0
206.5	3.5	First	stimuli/objects/setsof2/151b.jpg	151	3#	New	0.815	0
210.0	3.5	Foil	stimuli/objects/foils/foil_1305.JPG	0	5%	None	1.737	0
213.5	3.5	First	stimuli/objects/setsof2/111a.jpg	111	3#	New	1.055	0
217.0	3.5	Repeat	stimuli/objects/setsof2/087b.jpg	87	1!	Old	0.988	0
220.5	3.5	Foil	stimuli/objects/foils/foil_1176.JPG	0	3#	New	0.650	0
224.0	3.5	Foil	stimuli/objects/foils/foil_1523.JPG	0	3#	New	1.177	0
227.5	3.5	Lure	stimuli/objects/setsof2/162b.jpg	162	2@	Similar	0.921	5
231.0	3.5	First	stimuli/objects/setsof2/165b.jpg	165	3#	New	0.590	0
234.5	3.5	First	stimuli/objects/setsof2/125a.jpg	125	3#	New	0.617	0
238.0	3.5	Repeat	stimuli/objects/setsof2/110a.jpg	110	1!	Old	0.897	0
241.5	3.5	Foil	stimuli/objects/foils/foil_1694.jpg	0	3#	New	0.794	0
245.0	3.5	First	stimuli/objects/setsof2/154a.jpg	154	3#	New	1.326	0
248.5	3.5	Foil	stimuli/objects/foils/foil_1700.JPG	0	3#	New	0.730	0
252.0	3.5	Lure	stimuli/objects/setsof2/055b.jpg	55	3#	New	0.595	1
255.5	3.5	First	stimuli/objects/setsof2/173a.jpg	173	3#	New	0.675	0
259.0	3.5	Lure	stimuli/objects/setsof2/165a.jpg	165	2@	Similar	0.945	1
262.5	3.5	Repeat	stimuli/objects/setsof2/132b.jpg	132	2@	Similar	0.894	0
266.0	3.5	First	stimuli/objects/setsof2/136b.jpg	136	3#	New	0.536	0
269.5	3.5	Lure	stimuli/objects/setsof2/041b.jpg	41	1!	Old	0.830	6
273.0	3.5	Repeat	stimuli/objects/setsof2/151b.jpg	151	1!	Old	0.773	0
276.5	3.5	Lure	stimuli/objects/setsof2/098b.jpg	98	1!	Old	1.157	4
280.0	3.5	First	stimuli/objects/setsof2/038b.jpg	38	3#	New	0.568	0
283.5	3.5	Lure	stimuli/objects/setsof2/111b.jpg	111	2@	Similar	0.924	2
287.0	3.5	Repeat	stimuli/objects/setsof2/154a.jpg	154	1!	Old	1.116	0
290.5	3.5	Repeat	stimuli/objects/setsof2/161b.jpg	161	1!	Old	0.805	0
294.0	3.5	Foil	stimuli/objects/foils/foil_1065.JPG	0	3#	New	1.136	0
297.5	3.5	First	stimuli/objects/setsof2/148a.jpg	148	2@	Similar	1.307	0
301.0	3.5	Repeat	stimuli/objects/setsof2/159a.jpg	159	3#	New	0.564	0
304.5	3.5	Repeat	stimuli/objects/setsof2/125a.jpg	125	1!	Old	1.013	0
308.0	3.5	First	stimuli/objects/setsof2/057a.jpg	57	3#	New	0.920	0
311.5	3.5	First	stimuli/objects/setsof2/152b.jpg	152	3#	New	0.589	0
315.0	3.5	Foil	stimuli/objects/foils/foil_1407.JPG	0	3#	New	0.623	0
318.5	3.5	First	stimuli/objects/setsof2/042a.jpg	42	3#	New	0.765	0
322.0	3.5	Lure	stimuli/objects/setsof2/057b.jpg	57	2@	Similar	1.014	4
325.5	3.5	Repeat	stimuli/objects/setsof2/173a.jpg	173	1!	Old	0.897	0
329.0	3.5	First	stimuli/objects/setsof2/081a.jpg	81	3#	New	0.679	0
332.5	3.5	Lure	stimuli/objects/setsof2/030b.jpg	30	2@	Similar	1.136	1
336.0	3.5	Lure	stimuli/objects/setsof2/148b.jpg	148	2@	Similar	1.445	4
339.5	3.5	Foil	stimuli/objects/foils/foil_1010.jpg	0	3#	New	0.635	0
343.0	3.5	Repeat	stimuli/objects/setsof2/152b.jpg	152	1!	Old	0.849	0
346.5	3.5	Repeat	stimuli/objects/setsof2/136b.jpg	136	1!	Old	0.829	0
350.0	3.5	Foil	stimuli/objects/foils/foil_1465.JPG	0	3#	New	0.625	0
353.5	3.5	Repeat	stimuli/objects/setsof2/038b.jpg	38	1!	Old	0.920	0
357.0	3.5	Foil	stimuli/objects/foils/foil_1404.jpg	0	3#	New	0.738	0
360.5	3.5	Lure	stimuli/objects/setsof2/042b.jpg	42	3#	New	1.563	3
364.0	3.5	Foil	stimuli/objects/foils/foil_1175.JPG	0	3#	New	0.644	0
367.5	3.5	Lure	stimuli/objects/setsof2/081b.jpg	81	3#	New	1.134	1
371.0	3.5	Foil	stimuli/objects/foils/foil_1613.JPG	0	3#	New	0.914	0
