onset	duration	trial_type	stimulus_name	set_num	keypress	response	rt	similarity_bin
0.0	3.5	Foil	stimuli/objects/foils/foil_1324.jpg	0	3#	New	0.865	0
3.5	3.5	First	stimuli/objects/setsof2/172b.jpg	172	3#	New	0.576	0
7.0	3.5	Foil	stimuli/objects/foils/foil_1245.JPG	0	3#	New	0.578	0
10.5	3.5	Foil	stimuli/objects/foils/foil_1340.JPG	0	3#	New	0.564	0
14.0	3.5	First	stimuli/objects/setsof2/140a.jpg	140	3#	New	0.496	0
17.5	3.5	Foil	stimuli/objects/foils/foil_1580.jpg	0	3#	New	0.586	0
21.0	3.5	Foil	stimuli/objects/foils/foil_1714.JPG	0	3#	New	0.791	0
24.5	3.5	First	stimuli/objects/setsof2/028a.jpg	28	3#	New	0.648	0
28.0	3.5	Foil	stimuli/objects/foils/foil_1542.JPG	0	3#	New	0.846	0
31.5	3.5	Foil	stimuli/objects/foils/foil_1043.JPG	0	3#	New	0.684	0
35.0	3.5	First	stimuli/objects/setsof2/136b.jpg	136	3#	New	0.577	0
38.5	3.5	Foil	stimuli/objects/foils/foil_1584.jpg	0	3#	New	0.729	0
42.0	3.5	Foil	stimuli/objects/foils/foil_1581.JPG	0	3#	New	0.858	0
45.5	3.5	Repeat	stimuli/objects/setsof2/172b.jpg	172	1!	Old	1.072	0
49.0	3.5	First	stimuli/objects/setsof2/108a.jpg	108	3#	New	0.840	0
52.5	3.5	Lure	stimuli/objects/setsof2/140b.jpg	140	1!	Old	0.926	6
56.0	3.5	Foil	stimuli/objects/foils/foil_1334.JPG	0	3#	New	0.689	0
59.5	3.5	First	stimuli/objects/setsof2/065a.jpg	65	3#	New	0.740	0
63.0	3.5	Foil	stimuli/objects/foils/foil_1049.JPG	0	3#	New	1.255	0
66.5	3.5	First	stimuli/objects/setsof2/173b.jpg	173	5%	None	1.741	0
70.0	3.5	Lure	stimuli/objects/setsof2/136a.jpg	136	2@	Similar	0.805	1
73.5	3.5	Foil	stimuli/objects/foils/foil_1037.JPG	0	3#	New	1.262	0
77.0	3.5	Repeat	stimuli/objects/setsof2/028a.jpg	28	1!	Old	0.826	0
80.5	3.5	Foil	stimuli/objects/foils/foil_1082.JPG	0	3#	New	1.351	0
84.0	3.5	Foil	stimuli/objects/foils/foil_1175.JPG	0	3#	New	1.241	0
87.5	3.5	First	stimuli/objects/setsof2/092a.jpg	92	3#	New	0.669	0
91.0	3.5	First	stimuli/objects/setsof2/151b.jpg	151	2@	Similar	1.727	0
94.5	3.5	Foil	stimuli/objects/foils/foil_1583.JPG	0	3#	New	0.577	0
98.0	3.5	Foil	stimuli/objects/foils/foil_1704.JPG	0	3#	New	0.995	0
101.5	3.5	Repeat	stimuli/objects/setsof2/173b.jpg	173	1!	Old	1.034	0
105.0	3.5	Foil	stimuli/objects/foils/foil_1551.jpg	0	3#	New	0.985	0
108.5	3.5	First	stimuli/objects/setsof2/002b.jpg	2	3#	New	0.798	0
112.0	3.5	First	stimuli/objects/setsof2/071b.jpg	71	3#	New	0.830	0
115.5	3.5	Foil	stimuli/objects/foils/foil_1395.JPG	0	3#	New	0.665	0
119.0	3.5	Foil	stimuli/objects/foils/foil_1697.jpg	0	3#	New	0.650	0
122.5	3.5	Foil	stimuli/objects/foils/foil_1453.JPG	0	3#	New	0.988	0
126.0	3.5	First	stimuli/objects/setsof2/060b.jpg	60	3#	New	0.639	0
129.5	3.5	Foil	stimuli/objects/foils/foil_1645.JPG	0	3#	New	0.665	0
133.0	3.5	First	stimuli/objects/setsof2/016b.jpg	16	3#	New	0.882	0
136.5	3.5	Foil	stimuli/objects/foils/foil_1021.jpg	0	3#	New	0.945	0
140.0	3.5	First	stimuli/objects/setsof2/178b.jpg	178	3#	New	0.628	0
143.5	3.5	Foil	stimuli/objects/foils/foil_1261.JPG	0	3#	New	0.927	0
147.0	3.5	Foil	stimuli/objects/foils/foil_1620.JPG	0	3#	New	0.726	0
150.5	3.5	Lure	stimuli/objects/setsof2/071a.jpg	71	1!	Old	0.823	5
154.0	3.5	First	stimuli/objects/setsof2/128a.jpg	128	3#	New	0.647	0
157.5	3.5	Foil	stimuli/objects/foils/foil_1393.JPG	0	3#	New	0.838	0
161.0	3.5	First	stimuli/objects/setsof2/050a.jpg	50	3#	New	0.691	0
164.5	3.5	Foil	stimuli/objects/foils/foil_1724.JPG	0	3#	New	0.766	0
168.0	3.5	Foil	stimuli/objects/foils/foil_1178.JPG	0	3#	New	0.600	0
171.5	3.5	Foil	stimuli/objects/foils/foil_1156.JPG	0	3#	New	0.629	0
175.0	3.5	First	stimuli/objects/setsof2/188b.jpg	188	3#	New	0.906	0
178.5	3.5	Foil	stimuli/objects/foils/foil_1716.JPG	0	2@	Similar	1.373	0
182.0	3.5	First	stimuli/objects/setsof2/046a.jpg	46	3#	New	1.161	0
185.5	3.5	Repeat	stimuli/objects/setsof2/108a.jpg	108	1!	Old	1.577	0
189.0	3.5	Foil	stimuli/objects/foils/foil_1460.JPG	0	3#	New	0.529	0
192.5	3.5	First	stimuli/objects/setsof2/063a.jpg	63	3#	New	1.046	0
196.0	3.5	Lure	stimuli/objects/setsof2/065b.jpg	65	2@	Similar	0.980	2
199.5	3.5	Foil	stimuli/objects/foils/foil_1537.JPG	0	3#	New	0.857	0
203.0	3.5	First	stimuli/objects/setsof2/126b.jpg	126	3#	New	0.584	0
206.5	3.5	Repeat	stimuli/objects/setsof2/188b.jpg	188	1!	Old	0.842	0
210.0	3.5	Foil	stimuli/objects/foils/foil_1063.jpg	0	3#	New	0.940	0
213.5	3.5	First	stimuli/objects/setsof2/169b.jpg	169	3#	New	1.022	0
217.0	3.5	Lure	stimuli/objects/setsof2/092b.jpg	92	1!	Old	1.656	6
220.5	3.5	Repeat	stimuli/objects/setsof2/128a.jpg	128	1!	Old	0.767	0
224.0	3.5	First	stimuli/objects/setsof2/170b.jpg	170	3#	New	1.014	0
227.5	3.5	Repeat	stimuli/objects/setsof2/151b.jpg	151	1!	Old	0.961	0
231.0	3.5	Lure	stimuli/objects/setsof2/050b.jpg	50	2@	Similar	1.281	6
234.5	3.5	First	stimuli/objects/setsof2/084b.jpg	84	3#	New	0.871	0
238.0	3.5	Lure	stimuli/objects/setsof2/002a.jpg	2	1!	Old	0.996	6
241.5	3.5	Foil	stimuli/objects/foils/foil_1671.JPG	0	3#	New	0.684	0
245.0	3.5	First	stimuli/objects/setsof2/117a.jpg	117	3#	New	0.800	0
248.5	3.5	Repeat	stimuli/objects/setsof2/169b.jpg	169	1!	Old	0.970	0
252.0	3.5	Lure	stimuli/objects/setsof2/046b.jpg	46	2@	Similar	0.781	2
255.5	3.5	First	stimuli/objects/setsof2/109a.jpg	109	5%	None	1.729	0
259.0	3.5	Repeat	stimuli/objects/setsof2/060b.jpg	60	1!	Old	0.944	0
262.5	3.5	Repeat	stimuli/objects/setsof2/063a.jpg	63	1!	Old	0.908	0
266.0	3.5	First	stimuli/objects/setsof2/134b.jpg	134	3#	New	0.761	0
269.5	3.5	Repeat	stimuli/objects/setsof2/016b.jpg	16	5%	None	1.729	0
273.0	3.5	Lure	stimuli/objects/setsof2/126a.jpg	126	2@	Similar	0.926	5
276.5	3.5	First	stimuli/objects/setsof2/022b.jpg	22	3#	New	0.988	0
280.0	3.5	Lure	stimuli/objects/setsof2/178a.jpg	178	5%	None	1.728	1
283.5	3.5	Foil	stimuli/objects/foils/foil_1381.JPG	0	3#	New	0.625	0
287.0	3.5	Foil	stimuli/objects/foils/foil_1218.JPG	0	3#	New	1.299	0
290.5	3.5	Lure	stimuli/objects/setsof2/109b.jpg	109	2@	Similar	0.754	3
294.0	3.5	Lure	stimuli/objects/setsof2/170a.jpg	170	2@	Similar	0.773	4
297.5	3.5	First	stimuli/objects/setsof2/052a.jpg	52	3#	New	0.650	0
301.0	3.5	Repeat	stimuli/objects/setsof2/134b.jpg	134	2@	Similar	1.652	0
304.5	3.5	Lure	stimuli/objects/setsof2/084a.jpg	84	2@	Similar	0.719	2
308.0	3.5	First	stimuli/objects/setsof2/132a.jpg	132	3#	New	1.443	0
311.5	3.5	Lure	stimuli/objects/setsof2/022a.jpg	22	1!	Old	1.380	5
315.0	3.5	Lure	stimuli/objects/setsof2/117b.jpg	117	2@	Similar	0.802	2
318.5	3.5	First	stimuli/objects/setsof2/097a.jpg	97	3#	New	0.786	0
322.0	3.5	Repeat	stimuli/objects/setsof2/097a.jpg	97	1!	Old	0.967	0
325.5	3.5	Foil	stimuli/objects/foils/foil_1476.JPG	0	3#	New	0.640	0
329.0	3.5	First	stimuli/objects/setsof2/162a.jpg	162	3#	New	0.654	0
332.5	3.5	First	stimuli/objects/setsof2/062b.jpg	62	3#	New	0.614	0
336.0	3.5	Lure	stimuli/objects/setsof2/052b.jpg	52	2@	Similar	0.699	4
339.5	3.5	Foil	stimuli/objects/foils/foil_1570.JPG	0	3#	New	0.621	0
343.0	3.5	Repeat	stimuli/objects/setsof2/132a.jpg	132	3#	New	1.108	0
346.5	3.5	Foil	stimuli/objects/foils/foil_1003.jpg	0	3#	New	0.740	0
350.0	3.5	Foil	stimuli/objects/foils/foil_1726.jpg	0	3#	New	0.684	0
353.5	3.5	Repeat	stimuli/objects/setsof2/162a.jpg	162	1!	Old	0.936	0
357.0	3.5	Foil	stimuli/objects/foils/foil_1170.JPG	0	3#	New	0.541	0
360.5	3.5	Foil	stimuli/objects/foils/foil_1144.JPG	0	3#	New	0.748	0
364.0	3.5	Foil	stimuli/objects/foils/foil_1479.JPG	0	5%	None	1.723	0
367.5	3.5	Foil	stimuli/objects/foils/foil_1670.JPG	0	3#	New	1.101	0
371.0	3.5	Repeat	stimuli/objects/setsof2/062b.jpg	62	5%	None	1.723	0
