onset	duration	trial_type	stimulus_name	set_num	keypress	response	rt	similarity_bin
0.0	3.5	Foil	stimuli/objects/foils/foil_1106.JPG	0	3#	New	0.945	0
3.5	3.5	Foil	stimuli/objects/foils/foil_1028.JPG	0	3#	New	0.729	0
7.0	3.5	Foil	stimuli/objects/foils/foil_1135.JPG	0	3#	New	0.954	0
10.5	3.5	First	stimuli/objects/setsof2/022b.jpg	22	3#	New	0.664	0
14.0	3.5	Foil	stimuli/objects/foils/foil_1042.JPG	0	3#	New	0.775	0
17.5	3.5	Foil	stimuli/objects/foils/foil_1524.JPG	0	3#	New	0.668	0
21.0	3.5	Foil	stimuli/objects/foils/foil_1550.JPG	0	3#	New	0.611	0
24.5	3.5	First	stimuli/objects/setsof2/025b.jpg	25	3#	New	0.617	0
28.0	3.5	First	stimuli/objects/setsof2/040b.jpg	40	3#	New	0.780	0
31.5	3.5	Foil	stimuli/objects/foils/foil_1303.JPG	0	3#	New	0.635	0
35.0	3.5	First	stimuli/objects/setsof2/184b.jpg	184	3#	New	0.931	0
38.5	3.5	Repeat	stimuli/objects/setsof2/022b.jpg	22	1!	Old	1.078	0
42.0	3.5	Foil	stimuli/objects/foils/foil_1021.jpg	0	3#	New	0.618	0
45.5	3.5	Foil	stimuli/objects/foils/foil_1488.JPG	0	3#	New	1.284	0
49.0	3.5	Lure	stimuli/objects/setsof2/040a.jpg	40	2@	Similar	1.077	5
52.5	3.5	First	stimuli/objects/setsof2/106a.jpg	106	3#	New	0.741	0
56.0	3.5	Foil	stimuli/objects/foils/foil_1627.jpg	0	3#	New	0.866	0
59.5	3.5	Repeat	stimuli/objects/setsof2/025b.jpg	25	1!	Old	0.910	0
63.0	3.5	Foil	stimuli/objects/foils/foil_1138.JPG	0	3#	New	0.948	0
66.5	3.5	First	stimuli/objects/setsof2/085b.jpg	85	3#	New	1.064	0
70.0	3.5	Lure	stimuli/objects/setsof2/184a.jpg	184	1!	Old	0.970	5
73.5	3.5	Foil	stimuli/objects/foils/foil_1055.JPG	0	3#	New	0.752	0
77.0	3.5	First	stimuli/objects/setsof2/037b.jpg	37	3#	New	0.781	0
80.5	3.5	Repeat	stimuli/objects/setsof2/106a.jpg	106	1!	Old	0.858	0
84.0	3.5	Foil	stimuli/objects/foils/foil_1491.jpg	0	3#	New	0.857	0
87.5	3.5	First	stimuli/objects/setsof2/093b.jpg	93	5%	None	1.743	0
91.0	3.5	Foil	stimuli/objects/foils/foil_1483.JPG	0	3#	New	0.932	0
94.5	3.5	First	stimuli/objects/setsof2/104a.jpg	104	3#	New	0.661	0
98.0	3.5	Foil	stimuli/objects/foils/foil_1351.JPG	0	3#	New	0.669	0
101.5	3.5	First	stimuli/objects/setsof2/164b.jpg	164	3#	New	0.820	0
105.0	3.5	Foil	stimuli/objects/foils/foil_1499.JPG	0	3#	New	0.636	0
108.5	3.5	First	stimuli/objects/setsof2/099a.jpg	99	3#	New	0.656	0
112.0	3.5	Foil	stimuli/objects/foils/foil_1712.JPG	0	3#	New	0.695	0
115.5	3.5	Foil	stimuli/objects/foils/foil_1090.JPG	0	5%	None	1.742	0
119.0	3.5	First	stimuli/objects/setsof2/173b.jpg	173	3#	New	0.866	0
122.5	3.5	Repeat	stimuli/objects/setsof2/104a.jpg	104	1!	Old	0.946	0
126.0	3.5	Foil	stimuli/objects/foils/foil_1413.JPG	0	3#	New	0.971	0
129.5	3.5	First	stimuli/objects/setsof2/187a.jpg	187	3#	New	0.832	0
133.0	3.5	Foil	stimuli/objects/foils/foil_1221.JPG	0	3#	New	0.697	0
136.5	3.5	Foil	stimuli/objects/foils/foil_1204.JPG	0	3#	New	0.703	0
140.0	3.5	First	stimuli/objects/setsof2/017b.jpg	17	3#	New	0.747	0
143.5	3.5	Foil	stimuli/objects/foils/foil_1693.jpg	0	3#	New	0.618	0
147.0	3.5	Foil	stimuli/objects/foils/foil_1381.JPG	0	3#	New	0.719	0
150.5	3.5	Foil	stimuli/objects/foils/foil_1604.JPG	0	3#	New	0.671	0
154.0	3.5	Foil	stimuli/objects/foils/foil_1426.JPG	0	3#	New	0.836	0
157.5	3.5	Foil	stimuli/objects/foils/foil_1370.JPG	0	3#	New	0.863	0
161.0	3.5	First	stimuli/objects/setsof2/043b.jpg	43	3#	New	0.857	0
164.5	3.5	Foil	stimuli/objects/foils/foil_1254.JPG	0	3#	New	0.832	0
168.0	3.5	Foil	stimuli/objects/foils/foil_1391.JPG	0	3#	New	0.739	0
171.5	3.5	First	stimuli/objects/setsof2/032a.jpg	32	3#	New	1.006	0
175.0	3.5	Foil	stimuli/objects/foils/foil_1112.JPG	0	3#	New	0.701	0
178.5	3.5	Foil	stimuli/objects/foils/foil_1045.JPG	0	3#	New	0.630	0
182.0	3.5	First	stimuli/objects/setsof2/064a.jpg	64	3#	New	0.949	0
185.5	3.5	Repeat	stimuli/objects/setsof2/032a.jpg	32	1!	Old	0.928	0
189.0	3.5	Foil	stimuli/objects/foils/foil_1255.JPG	0	3#	New	0.907	0
192.5	3.5	First	stimuli/objects/setsof2/003b.jpg	3	3#	New	0.687	0
196.0	3.5	First	stimuli/objects/setsof2/123b.jpg	123	3#	New	1.057	0
199.5	3.5	Lure	stimuli/objects/setsof2/037a.jpg	37	1!	Old	1.163	6
203.0	3.5	First	stimuli/objects/setsof2/124a.jpg	124	3#	New	0.581	0
206.5	3.5	Foil	stimuli/objects/foils/foil_1019.jpg	0	3#	New	0.628	0
210.0	3.5	Foil	stimuli/objects/foils/foil_1330.JPG	0	3#	New	0.791	0
213.5	3.5	First	stimuli/objects/setsof2/056b.jpg	56	3#	New	1.508	0
217.0	3.5	Lure	stimuli/objects/setsof2/085a.jpg	85	2@	Similar	1.042	3
220.5	3.5	Lure	stimuli/objects/setsof2/093a.jpg	93	1!	Old	1.142	6
224.0	3.5	Foil	stimuli/objects/foils/foil_1698.JPG	0	3#	New	0.967	0
227.5	3.5	Lure	stimuli/objects/setsof2/123a.jpg	123	2@	Similar	1.019	2
231.0	3.5	Lure	stimuli/objects/setsof2/043a.jpg	43	2@	Similar	1.100	5
234.5	3.5	First	stimuli/objects/setsof2/079b.jpg	79	3#	New	0.738	0
238.0	3.5	First	stimuli/objects/setsof2/176a.jpg	176	3#	New	1.275	0
241.5	3.5	Repeat	stimuli/objects/setsof2/164b.jpg	164	1!	Old	0.846	0
245.0	3.5	First	stimuli/objects/setsof2/155a.jpg	155	3#	New	0.920	0
248.5	3.5	Repeat	stimuli/objects/setsof2/099a.jpg	99	1!	Old	0.855	0
252.0	3.5	Repeat	stimuli/objects/setsof2/064a.jpg	64	1!	Old	0.692	0
255.5	3.5	First	stimuli/objects/setsof2/036b.jpg	36	3#	New	0.668	0
259.0	3.5	Repeat	stimuli/objects/setsof2/173b.jpg	173	1!	Old	0.915	0
262.5	3.5	Foil	stimuli/objects/foils/foil_1125.JPG	0	3#	New	1.181	0
266.0	3.5	Lure	stimuli/objects/setsof2/003a.jpg	3	2@	Similar	0.980	1
269.5	3.5	Lure	stimuli/objects/setsof2/187b.jpg	187	2@	Similar	0.797	1
273.0	3.5	First	stimuli/objects/setsof2/185b.jpg	185	3#	New	1.059	0
276.5	3.5	First	stimuli/objects/setsof2/115b.jpg	115	5%	None	1.732	0
280.0	3.5	Repeat	stimuli/objects/setsof2/124a.jpg	124	1!	Old	0.874	0
283.5	3.5	Repeat	stimuli/objects/setsof2/017b.jpg	17	1!	Old	0.906	0
287.0	3.5	First	stimuli/objects/setsof2/133a.jpg	133	3#	New	0.998	0
290.5	3.5	Repeat	stimuli/objects/setsof2/056b.jpg	56	1!	Old	0.845	0
294.0	3.5	Repeat	stimuli/objects/setsof2/079b.jpg	79	1!	Old	0.780	0
297.5	3.5	First	stimuli/objects/setsof2/080b.jpg	80	3#	New	0.898	0
301.0	3.5	Repeat	stimuli/objects/setsof2/036b.jpg	36	1!	Old	0.763	0
304.5	3.5	Lure	stimuli/objects/setsof2/185a.jpg	185	2@	Similar	1.059	1
308.0	3.5	First	stimuli/objects/setsof2/097a.jpg	97	3#	New	1.409	0
311.5	3.5	Lure	stimuli/objects/setsof2/115a.jpg	115	2@	Similar	0.958	1
315.0	3.5	Repeat	stimuli/objects/setsof2/155a.jpg	155	1!	Old	0.852	0
318.5	3.5	Lure	stimuli/objects/setsof2/176b.jpg	176	2@	Similar	1.024	2
322.0	3.5	Lure	stimuli/objects/setsof2/133b.jpg	133	2@	Similar	1.096	2
325.5	3.5	First	stimuli/objects/setsof2/019a.jpg	19	2@	Similar	0.984	0
329.0	3.5	First	stimuli/objects/setsof2/163a.jpg	163	3#	New	0.832	0
332.5	3.5	Foil	stimuli/objects/foils/foil_1105.jpg	0	3#	New	0.638	0
336.0	3.5	Foil	stimuli/objects/foils/foil_1469.JPG	0	3#	New	0.750	0
339.5	3.5	Repeat	stimuli/objects/setsof2/080b.jpg	80	1!	Old	0.835	0
343.0	3.5	Lure	stimuli/objects/setsof2/097b.jpg	97	2@	Similar	1.013	2
346.5	3.5	Foil	stimuli/objects/foils/foil_1003.jpg	0	3#	New	0.705	0
350.0	3.5	Foil	stimuli/objects/foils/foil_1337.JPG	0	3#	New	0.963	0
353.5	3.5	Lure	stimuli/objects/setsof2/019b.jpg	19	2@	Similar	1.119	3
357.0	3.5	Foil	stimuli/objects/foils/foil_1649.JPG	0	3#	New	1.013	0
360.5	3.5	Foil	stimuli/objects/foils/foil_1190.JPG	0	3#	New	1.229	0
364.0	3.5	Foil	stimuli/objects/foils/foil_1119.JPG	0	3#	New	1.181	0
367.5	3.5	Lure	stimuli/objects/setsof2/163b.jpg	163	2@	Similar	1.029	5
371.0	3.5	Foil	stimuli/objects/foils/foil_1193.JPG	0	3#	New	0.976	0
