onset	duration	trial_type	stimulus_name	set_num	keypress	response	rt	similarity_bin
0.0	3.5	Foil	stimuli/objects/foils/foil_1167.JPG	0	5%	None	1.687	0
3.5	3.5	Foil	stimuli/objects/foils/foil_1238.JPG	0	3#	New	0.863	0
7.0	3.5	Foil	stimuli/objects/foils/foil_1491.jpg	0	3#	New	0.837	0
10.5	3.5	Foil	stimuli/objects/foils/foil_1403.JPG	0	3#	New	0.930	0
14.0	3.5	First	stimuli/objects/setsof2/178b.jpg	178	3#	New	1.040	0
17.5	3.5	Foil	stimuli/objects/foils/foil_1481.JPG	0	3#	New	0.844	0
21.0	3.5	First	stimuli/objects/setsof2/045a.jpg	45	3#	New	1.006	0
24.5	3.5	First	stimuli/objects/setsof2/025b.jpg	25	3#	New	1.103	0
28.0	3.5	Foil	stimuli/objects/foils/foil_1057.JPG	0	3#	New	1.017	0
31.5	3.5	Foil	stimuli/objects/foils/foil_1379.JPG	0	3#	New	1.219	0
35.0	3.5	First	stimuli/objects/setsof2/097b.jpg	97	3#	New	1.416	0
38.5	3.5	Repeat	stimuli/objects/setsof2/178b.jpg	178	1!	Old	1.454	0
42.0	3.5	Foil	stimuli/objects/foils/foil_1100.JPG	0	3#	New	0.830	0
45.5	3.5	First	stimuli/objects/setsof2/155b.jpg	155	3#	New	1.306	0
49.0	3.5	Repeat	stimuli/objects/setsof2/045a.jpg	45	5%	None	1.746	0
52.5	3.5	Foil	stimuli/objects/foils/foil_1526.JPG	0	3#	New	1.571	0
56.0	3.5	Foil	stimuli/objects/foils/foil_1136.JPG	0	3#	New	1.066	0
59.5	3.5	Lure	stimuli/objects/setsof2/025a.jpg	25	5%	None	1.746	4
63.0	3.5	Foil	stimuli/objects/foils/foil_1493.JPG	0	3#	New	1.168	0
66.5	3.5	First	stimuli/objects/setsof2/111b.jpg	111	3#	New	1.116	0
70.0	3.5	Lure	stimuli/objects/setsof2/097a.jpg	97	5%	None	1.745	2
73.5	3.5	Foil	stimuli/objects/foils/foil_1720.JPG	0	3#	New	1.126	0
77.0	3.5	First	stimuli/objects/setsof2/011b.jpg	11	3#	New	0.986	0
80.5	3.5	Repeat	stimuli/objects/setsof2/155b.jpg	155	1!	Old	1.477	0
84.0	3.5	First	stimuli/objects/setsof2/152a.jpg	152	3#	New	0.973	0
87.5	3.5	First	stimuli/objects/setsof2/010b.jpg	10	3#	New	1.511	0
91.0	3.5	Foil	stimuli/objects/foils/foil_1433.JPG	0	3#	New	1.069	0
94.5	3.5	Foil	stimuli/objects/foils/foil_1389.JPG	0	3#	New	1.020	0
98.0	3.5	First	stimuli/objects/setsof2/014b.jpg	14	3#	New	1.269	0
101.5	3.5	Foil	stimuli/objects/foils/foil_1546.JPG	0	3#	New	1.241	0
105.0	3.5	Foil	stimuli/objects/foils/foil_1149.JPG	0	3#	New	0.990	0
108.5	3.5	First	stimuli/objects/setsof2/146a.jpg	146	3#	New	1.223	0
112.0	3.5	Lure	stimuli/objects/setsof2/011a.jpg	11	1!	Old	1.518	4
115.5	3.5	Foil	stimuli/objects/foils/foil_1242.JPG	0	3#	New	1.419	0
119.0	3.5	First	stimuli/objects/setsof2/121a.jpg	121	3#	New	1.651	0
122.5	3.5	Repeat	stimuli/objects/setsof2/010b.jpg	10	1!	Old	1.171	0
126.0	3.5	Foil	stimuli/objects/foils/foil_1180.JPG	0	3#	New	1.247	0
129.5	3.5	Foil	stimuli/objects/foils/foil_1386.JPG	0	3#	New	0.972	0
133.0	3.5	Foil	stimuli/objects/foils/foil_1265.JPG	0	3#	New	1.490	0
136.5	3.5	First	stimuli/objects/setsof2/080a.jpg	80	3#	New	0.969	0
140.0	3.5	First	stimuli/objects/setsof2/096a.jpg	96	3#	New	1.472	0
143.5	3.5	Repeat	stimuli/objects/setsof2/146a.jpg	146	1!	Old	1.351	0
147.0	3.5	Foil	stimuli/objects/foils/foil_1346.JPG	0	3#	New	1.168	0
150.5	3.5	First	stimuli/objects/setsof2/149b.jpg	149	3#	New	1.074	0
154.0	3.5	Foil	stimuli/objects/foils/foil_1107.JPG	0	3#	New	0.871	0
157.5	3.5	Foil	stimuli/objects/foils/foil_1515.JPG	0	3#	New	0.863	0
161.0	3.5	First	stimuli/objects/setsof2/114b.jpg	114	3#	New	0.736	0
164.5	3.5	Foil	stimuli/objects/foils/foil_1050.jpg	0	3#	New	0.747	0
168.0	3.5	Foil	stimuli/objects/foils/foil_1706.JPG	0	3#	New	0.727	0
171.5	3.5	First	stimuli/objects/setsof2/015b.jpg	15	3#	New	0.981	0
175.0	3.5	Foil	stimuli/objects/foils/foil_1412.JPG	0	3#	New	0.820	0
178.5	3.5	Foil	stimuli/objects/foils/foil_1019.jpg	0	3#	New	1.123	0
182.0	3.5	First	stimuli/objects/setsof2/141a.jpg	141	3#	New	0.909	0
185.5	3.5	Foil	stimuli/objects/foils/foil_1553.JPG	0	3#	New	0.996	0
189.0	3.5	Foil	stimuli/objects/foils/foil_1126.JPG	0	3#	New	0.824	0
192.5	3.5	First	stimuli/objects/setsof2/004b.jpg	4	3#	New	1.508	0
196.0	3.5	Lure	stimuli/objects/setsof2/152b.jpg	152	2@	Similar	1.549	1
199.5	3.5	Foil	stimuli/objects/foils/foil_1714.JPG	0	3#	New	1.154	0
203.0	3.5	Foil	stimuli/objects/foils/foil_1623.JPG	0	3#	New	1.363	0
206.5	3.5	First	stimuli/objects/setsof2/043b.jpg	43	3#	New	0.674	0
210.0	3.5	Foil	stimuli/objects/foils/foil_1200.JPG	0	3#	New	1.002	0
213.5	3.5	First	stimuli/objects/setsof2/032a.jpg	32	3#	New	1.499	0
217.0	3.5	Lure	stimuli/objects/setsof2/141b.jpg	141	1!	Old	1.595	3
220.5	3.5	Foil	stimuli/objects/foils/foil_1541.JPG	0	3#	New	1.088	0
224.0	3.5	First	stimuli/objects/setsof2/122a.jpg	122	2@	Similar	1.562	0
227.5	3.5	Lure	stimuli/objects/setsof2/111a.jpg	111	2@	Similar	1.372	2
231.0	3.5	Lure	stimuli/objects/setsof2/114a.jpg	114	1!	Old	1.293	5
234.5	3.5	First	stimuli/objects/setsof2/002a.jpg	2	3#	New	0.941	0
238.0	3.5	Lure	stimuli/objects/setsof2/014a.jpg	14	2@	Similar	0.995	2
241.5	3.5	Foil	stimuli/objects/foils/foil_1043.JPG	0	3#	New	0.869	0
245.0	3.5	Repeat	stimuli/objects/setsof2/015b.jpg	15	1!	Old	1.298	0
248.5	3.5	Lure	stimuli/objects/setsof2/032b.jpg	32	5%	None	1.737	4
252.0	3.5	First	stimuli/objects/setsof2/124a.jpg	124	2@	Similar	1.604	0
255.5	3.5	Foil	stimuli/objects/foils/foil_1583.JPG	0	3#	New	1.416	0
259.0	3.5	Lure	stimuli/objects/setsof2/121b.jpg	121	2@	Similar	1.128	6
262.5	3.5	First	stimuli/objects/setsof2/168b.jpg	168	3#	New	1.626	0
266.0	3.5	First	stimuli/objects/setsof2/079a.jpg	79	5%	None	1.736	0
269.5	3.5	Repeat	stimuli/objects/setsof2/080a.jpg	80	1!	Old	1.130	0
273.0	3.5	Lure	stimuli/objects/setsof2/043a.jpg	43	1!	Old	1.053	5
276.5	3.5	First	stimuli/objects/setsof2/110a.jpg	110	3#	New	1.474	0
280.0	3.5	Lure	stimuli/objects/setsof2/096b.jpg	96	5%	None	1.736	4
283.5	3.5	Foil	stimuli/objects/foils/foil_1190.JPG	0	3#	New	1.063	0
287.0	3.5	First	stimuli/objects/setsof2/119a.jpg	119	5%	None	1.735	0
290.5	3.5	Repeat	stimuli/objects/setsof2/149b.jpg	149	1!	Old	1.040	0
294.0	3.5	Repeat	stimuli/objects/setsof2/122a.jpg	122	1!	Old	1.456	0
297.5	3.5	First	stimuli/objects/setsof2/112a.jpg	112	3#	New	0.930	0
301.0	3.5	Lure	stimuli/objects/setsof2/079b.jpg	79	2@	Similar	1.026	2
304.5	3.5	Lure	stimuli/objects/setsof2/002b.jpg	2	1!	Old	1.060	6
308.0	3.5	Foil	stimuli/objects/foils/foil_1272.JPG	0	3#	New	1.141	0
311.5	3.5	Repeat	stimuli/objects/setsof2/110a.jpg	110	1!	Old	1.214	0
315.0	3.5	First	stimuli/objects/setsof2/036b.jpg	36	3#	New	1.566	0
318.5	3.5	First	stimuli/objects/setsof2/181b.jpg	181	3#	New	1.602	0
322.0	3.5	Lure	stimuli/objects/setsof2/124b.jpg	124	2@	Similar	1.144	1
325.5	3.5	Repeat	stimuli/objects/setsof2/119a.jpg	119	1!	Old	1.359	0
329.0	3.5	Repeat	stimuli/objects/setsof2/168b.jpg	168	1!	Old	1.247	0
332.5	3.5	First	stimuli/objects/setsof2/038b.jpg	38	3#	New	1.544	0
336.0	3.5	Foil	stimuli/objects/foils/foil_1483.JPG	0	3#	New	1.609	0
339.5	3.5	Foil	stimuli/objects/foils/foil_1015.jpg	0	3#	New	1.635	0
343.0	3.5	Repeat	stimuli/objects/setsof2/004b.jpg	4	1!	Old	1.143	0
346.5	3.5	Foil	stimuli/objects/foils/foil_1420.JPG	0	3#	New	1.447	0
350.0	3.5	Repeat	stimuli/objects/setsof2/036b.jpg	36	1!	Old	1.059	0
353.5	3.5	Repeat	stimuli/objects/setsof2/181b.jpg	181	1!	Old	0.900	0
357.0	3.5	Foil	stimuli/objects/foils/foil_1253.JPG	0	3#	New	1.120	0
360.5	3.5	Foil	stimuli/objects/foils/foil_1292.JPG	0	3#	New	1.281	0
364.0	3.5	Lure	stimuli/objects/setsof2/038a.jpg	38	2@	Similar	1.177	5
367.5	3.5	Foil	stimuli/objects/foils/foil_1082.JPG	0	3#	New	1.322	0
371.0	3.5	Repeat	stimuli/objects/setsof2/112a.jpg	112	1!	Old	0.957	0
