onset	duration	trial_type	stimulus_name	set_num	keypress	response	rt	similarity_bin
0.0	3.5	Foil	stimuli/objects/foils/foil_1303.JPG	0	3#	New	0.872	0
3.5	3.5	First	stimuli/objects/setsof2/076b.jpg	76	3#	New	0.662	0
7.0	3.5	Foil	stimuli/objects/foils/foil_1508.JPG	0	3#	New	0.860	0
10.5	3.5	Foil	stimuli/objects/foils/foil_1643.JPG	0	3#	New	0.655	0
14.0	3.5	First	stimuli/objects/setsof2/131b.jpg	131	3#	New	0.739	0
17.5	3.5	Foil	stimuli/objects/foils/foil_1292.JPG	0	3#	New	0.671	0
21.0	3.5	Foil	stimuli/objects/foils/foil_1435.JPG	0	3#	New	0.743	0
24.5	3.5	First	stimuli/objects/setsof2/080a.jpg	80	3#	New	0.768	0
28.0	3.5	Foil	stimuli/objects/foils/foil_1356.JPG	0	3#	New	0.659	0
31.5	3.5	Foil	stimuli/objects/foils/foil_1329.JPG	0	3#	New	0.712	0
35.0	3.5	First	stimuli/objects/setsof2/059b.jpg	59	3#	New	0.631	0
38.5	3.5	Foil	stimuli/objects/foils/foil_1033.JPG	0	3#	New	0.712	0
42.0	3.5	Foil	stimuli/objects/foils/foil_1690.JPG	0	3#	New	0.887	0
45.5	3.5	First	stimuli/objects/setsof2/079b.jpg	79	3#	New	0.833	0
49.0	3.5	Foil	stimuli/objects/foils/foil_1686.JPG	0	3#	New	0.653	0
52.5	3.5	Lure	stimuli/objects/setsof2/131a.jpg	131	1!	Old	1.628	3
56.0	3.5	Foil	stimuli/objects/foils/foil_1380.JPG	0	3#	New	0.955	0
59.5	3.5	Foil	stimuli/objects/foils/foil_1280.JPG	0	3#	New	0.888	0
63.0	3.5	Foil	stimuli/objects/foils/foil_1525.JPG	0	3#	New	0.656	0
66.5	3.5	First	stimuli/objects/setsof2/094b.jpg	94	3#	New	0.838	0
70.0	3.5	Lure	stimuli/objects/setsof2/059a.jpg	59	2@	Similar	0.928	1
73.5	3.5	Foil	stimuli/objects/foils/foil_1153.JPG	0	3#	New	0.944	0
77.0	3.5	First	stimuli/objects/setsof2/043b.jpg	43	3#	New	1.028	0
80.5	3.5	First	stimuli/objects/setsof2/113b.jpg	113	3#	New	0.763	0
84.0	3.5	Repeat	stimuli/objects/setsof2/079b.jpg	79	1!	Old	1.576	0
87.5	3.5	First	stimuli/objects/setsof2/033b.jpg	33	3#	New	0.902	0
91.0	3.5	Lure	stimuli/objects/setsof2/094a.jpg	94	1!	Old	1.027	6
94.5	3.5	Foil	stimuli/objects/foils/foil_1118.jpg	0	5%	None	1.745	0
98.0	3.5	First	stimuli/objects/setsof2/082a.jpg	82	3#	New	1.312	0
101.5	3.5	Foil	stimuli/objects/foils/foil_1524.JPG	0	3#	New	0.785	0
105.0	3.5	Foil	stimuli/objects/foils/foil_1375.JPG	0	3#	New	0.839	0
108.5	3.5	First	stimuli/objects/setsof2/114a.jpg	114	3#	New	1.131	0
112.0	3.5	Foil	stimuli/objects/foils/foil_1111.JPG	0	3#	New	0.842	0
115.5	3.5	Foil	stimuli/objects/foils/foil_1357.JPG	0	3#	New	0.736	0
119.0	3.5	First	stimuli/objects/setsof2/186a.jpg	186	3#	New	0.649	0
122.5	3.5	Lure	stimuli/objects/setsof2/033a.jpg	33	2@	Similar	1.685	4
126.0	3.5	Foil	stimuli/objects/foils/foil_1323.JPG	0	3#	New	0.908	0
129.5	3.5	Foil	stimuli/objects/foils/foil_1322.JPG	0	3#	New	1.277	0
133.0	3.5	Foil	stimuli/objects/foils/foil_1269.JPG	0	3#	New	1.223	0
136.5	3.5	First	stimuli/objects/setsof2/005a.jpg	5	3#	New	0.915	0
140.0	3.5	First	stimuli/objects/setsof2/129a.jpg	129	3#	New	0.914	0
143.5	3.5	Foil	stimuli/objects/foils/foil_1330.JPG	0	3#	New	0.702	0
147.0	3.5	Repeat	stimuli/objects/setsof2/076b.jpg	76	1!	Old	1.377	0
150.5	3.5	First	stimuli/objects/setsof2/083b.jpg	83	3#	New	1.176	0
154.0	3.5	Lure	stimuli/objects/setsof2/186b.jpg	186	2@	Similar	0.943	3
157.5	3.5	Foil	stimuli/objects/foils/foil_1556.JPG	0	3#	New	1.010	0
161.0	3.5	First	stimuli/objects/setsof2/070b.jpg	70	3#	New	1.165	0
164.5	3.5	Foil	stimuli/objects/foils/foil_1561.JPG	0	3#	New	0.784	0
168.0	3.5	Lure	stimuli/objects/setsof2/080b.jpg	80	3#	New	0.893	1
171.5	3.5	Foil	stimuli/objects/foils/foil_1632.JPG	0	3#	New	1.044	0
175.0	3.5	Foil	stimuli/objects/foils/foil_1167.JPG	0	3#	New	1.040	0
178.5	3.5	First	stimuli/objects/setsof2/044a.jpg	44	3#	New	0.814	0
182.0	3.5	First	stimuli/objects/setsof2/181a.jpg	181	3#	New	0.934	0
185.5	3.5	Repeat	stimuli/objects/setsof2/083b.jpg	83	2@	Similar	1.083	0
189.0	3.5	Repeat	stimuli/objects/setsof2/114a.jpg	114	5%	None	1.741	0
192.5	3.5	Foil	stimuli/objects/foils/foil_1078.JPG	0	3#	New	0.957	0
196.0	3.5	Foil	stimuli/objects/foils/foil_1541.JPG	0	3#	New	1.109	0
199.5	3.5	First	stimuli/objects/setsof2/117b.jpg	117	3#	New	0.734	0
203.0	3.5	First	stimuli/objects/setsof2/166b.jpg	166	3#	New	0.623	0
206.5	3.5	Repeat	stimuli/objects/setsof2/005a.jpg	5	5%	None	1.740	0
210.0	3.5	Foil	stimuli/objects/foils/foil_1548.JPG	0	3#	New	0.731	0
213.5	3.5	First	stimuli/objects/setsof2/025a.jpg	25	3#	New	0.713	0
217.0	3.5	Repeat	stimuli/objects/setsof2/043b.jpg	43	1!	Old	1.184	0
220.5	3.5	Repeat	stimuli/objects/setsof2/113b.jpg	113	1!	Old	1.629	0
224.0	3.5	Foil	stimuli/objects/foils/foil_1324.jpg	0	3#	New	0.890	0
227.5	3.5	Foil	stimuli/objects/foils/foil_1096.JPG	0	3#	New	0.934	0
231.0	3.5	First	stimuli/objects/setsof2/032a.jpg	32	3#	New	0.656	0
234.5	3.5	Foil	stimuli/objects/foils/foil_1050.jpg	0	3#	New	0.747	0
238.0	3.5	Repeat	stimuli/objects/setsof2/082a.jpg	82	2@	Similar	1.440	0
241.5	3.5	First	stimuli/objects/setsof2/172b.jpg	172	3#	New	0.741	0
245.0	3.5	First	stimuli/objects/setsof2/144a.jpg	144	3#	New	0.842	0
248.5	3.5	Lure	stimuli/objects/setsof2/025b.jpg	25	2@	Similar	1.323	4
252.0	3.5	Repeat	stimuli/objects/setsof2/181a.jpg	181	1!	Old	1.085	0
255.5	3.5	First	stimuli/objects/setsof2/015a.jpg	15	3#	New	0.874	0
259.0	3.5	Lure	stimuli/objects/setsof2/032b.jpg	32	2@	Similar	0.936	4
262.5	3.5	Foil	stimuli/objects/foils/foil_1406.JPG	0	3#	New	0.940	0
266.0	3.5	First	stimuli/objects/setsof2/128b.jpg	128	3#	New	0.781	0
269.5	3.5	Lure	stimuli/objects/setsof2/044b.jpg	44	2@	Similar	1.333	3
273.0	3.5	Lure	stimuli/objects/setsof2/166a.jpg	166	2@	Similar	1.008	5
276.5	3.5	First	stimuli/objects/setsof2/149a.jpg	149	3#	New	0.860	0
280.0	3.5	Lure	stimuli/objects/setsof2/129b.jpg	129	2@	Similar	0.955	4
283.5	3.5	Foil	stimuli/objects/foils/foil_1478.JPG	0	3#	New	1.533	0
287.0	3.5	Lure	stimuli/objects/setsof2/172a.jpg	172	2@	Similar	1.016	3
290.5	3.5	First	stimuli/objects/setsof2/008b.jpg	8	3#	New	0.801	0
294.0	3.5	Foil	stimuli/objects/foils/foil_1002.jpg	0	3#	New	0.841	0
297.5	3.5	Repeat	stimuli/objects/setsof2/015a.jpg	15	1!	Old	0.965	0
301.0	3.5	First	stimuli/objects/setsof2/158a.jpg	158	3#	New	1.055	0
304.5	3.5	Repeat	stimuli/objects/setsof2/070b.jpg	70	1!	Old	0.950	0
308.0	3.5	Foil	stimuli/objects/foils/foil_1483.JPG	0	3#	New	0.881	0
311.5	3.5	Repeat	stimuli/objects/setsof2/149a.jpg	149	1!	Old	0.810	0
315.0	3.5	Lure	stimuli/objects/setsof2/144b.jpg	144	2@	Similar	0.927	3
318.5	3.5	First	stimuli/objects/setsof2/007b.jpg	7	3#	New	0.746	0
322.0	3.5	First	stimuli/objects/setsof2/039a.jpg	39	3#	New	0.766	0
325.5	3.5	Foil	stimuli/objects/foils/foil_1658.JPG	0	3#	New	0.846	0
329.0	3.5	Repeat	stimuli/objects/setsof2/008b.jpg	8	1!	Old	0.937	0
332.5	3.5	First	stimuli/objects/setsof2/021a.jpg	21	3#	New	0.953	0
336.0	3.5	Lure	stimuli/objects/setsof2/128a.jpg	128	2@	Similar	0.975	5
339.5	3.5	Foil	stimuli/objects/foils/foil_1494.JPG	0	3#	New	1.100	0
343.0	3.5	Repeat	stimuli/objects/setsof2/039a.jpg	39	1!	Old	0.782	0
346.5	3.5	Repeat	stimuli/objects/setsof2/117b.jpg	117	5%	None	1.734	0
350.0	3.5	Foil	stimuli/objects/foils/foil_1654.JPG	0	3#	New	0.785	0
353.5	3.5	Lure	stimuli/objects/setsof2/007a.jpg	7	1!	Old	1.479	6
357.0	3.5	Foil	stimuli/objects/foils/foil_1165.JPG	0	3#	New	0.769	0
360.5	3.5	Foil	stimuli/objects/foils/foil_1257.JPG	0	3#	New	0.816	0
364.0	3.5	Lure	stimuli/objects/setsof2/021b.jpg	21	1!	Old	0.809	6
367.5	3.5	Repeat	stimuli/objects/setsof2/158a.jpg	158	1!	Old	0.957	0
371.0	3.5	Foil	stimuli/objects/foils/foil_1560.JPG	0	3#	New	1.420	0
