onset	duration	trial_type	stimulus_name	set_num	keypress	response	rt	similarity_bin
0.0	3.5	Foil	stimuli/objects/foils/foil_1240.JPG	0	3#	New	1.014	0
3.5	3.5	Foil	stimuli/objects/foils/foil_1688.JPG	0	3#	New	1.240	0
7.0	3.5	First	stimuli/objects/setsof2/032b.jpg	32	3#	New	0.937	0
10.5	3.5	Foil	stimuli/objects/foils/foil_1497.JPG	0	3#	New	0.777	0
14.0	3.5	Foil	stimuli/objects/foils/foil_1337.JPG	0	3#	New	0.764	0
17.5	3.5	Foil	stimuli/objects/foils/foil_1554.JPG	0	3#	New	0.715	0
21.0	3.5	First	stimuli/objects/setsof2/033a.jpg	33	3#	New	0.738	0
24.5	3.5	First	stimuli/objects/setsof2/105b.jpg	105	3#	New	0.876	0
28.0	3.5	Foil	stimuli/objects/foils/foil_1702.JPG	0	3#	New	1.516	0
31.5	3.5	Foil	stimuli/objects/foils/foil_1487.JPG	0	3#	New	1.202	0
35.0	3.5	Foil	stimuli/objects/foils/foil_1652.JPG	0	3#	New	0.966	0
38.5	3.5	Lure	stimuli/objects/setsof2/032a.jpg	32	5%	None	1.747	4
42.0	3.5	First	stimuli/objects/setsof2/183b.jpg	183	5%	None	1.746	0
45.5	3.5	First	stimuli/objects/setsof2/089a.jpg	89	3#	New	1.242	0
49.0	3.5	Foil	stimuli/objects/foils/foil_1565.JPG	0	3#	New	1.247	0
52.5	3.5	Foil	stimuli/objects/foils/foil_1624.JPG	0	3#	New	0.944	0
56.0	3.5	Foil	stimuli/objects/foils/foil_1626.JPG	0	3#	New	1.170	0
59.5	3.5	First	stimuli/objects/setsof2/068b.jpg	68	3#	New	0.947	0
63.0	3.5	Foil	stimuli/objects/foils/foil_1078.JPG	0	3#	New	0.839	0
66.5	3.5	First	stimuli/objects/setsof2/102b.jpg	102	3#	New	1.066	0
70.0	3.5	Lure	stimuli/objects/setsof2/105a.jpg	105	5%	None	1.745	5
73.5	3.5	Foil	stimuli/objects/foils/foil_1616.JPG	0	3#	New	1.673	0
77.0	3.5	First	stimuli/objects/setsof2/119a.jpg	119	5%	None	1.744	0
80.5	3.5	Repeat	stimuli/objects/setsof2/089a.jpg	89	1!	Old	1.350	0
84.0	3.5	Foil	stimuli/objects/foils/foil_1027.JPG	0	3#	New	1.341	0
87.5	3.5	First	stimuli/objects/setsof2/189a.jpg	189	3#	New	1.315	0
91.0	3.5	Foil	stimuli/objects/foils/foil_1190.JPG	0	3#	New	1.010	0
94.5	3.5	Foil	stimuli/objects/foils/foil_1513.JPG	0	3#	New	1.274	0
98.0	3.5	First	stimuli/objects/setsof2/058a.jpg	58	3#	New	0.765	0
101.5	3.5	Repeat	stimuli/objects/setsof2/102b.jpg	102	1!	Old	1.386	0
105.0	3.5	Foil	stimuli/objects/foils/foil_1294.JPG	0	3#	New	1.317	0
108.5	3.5	Foil	stimuli/objects/foils/foil_1649.JPG	0	3#	New	1.035	0
112.0	3.5	First	stimuli/objects/setsof2/191a.jpg	191	3#	New	0.882	0
115.5	3.5	Foil	stimuli/objects/foils/foil_1406.JPG	0	3#	New	0.864	0
119.0	3.5	First	stimuli/objects/setsof2/035b.jpg	35	3#	New	0.771	0
122.5	3.5	Repeat	stimuli/objects/setsof2/189a.jpg	189	1!	Old	1.388	0
126.0	3.5	Foil	stimuli/objects/foils/foil_1217.JPG	0	3#	New	1.536	0
129.5	3.5	Lure	stimuli/objects/setsof2/119b.jpg	119	5%	None	1.742	5
133.0	3.5	First	stimuli/objects/setsof2/123b.jpg	123	3#	New	1.083	0
136.5	3.5	Foil	stimuli/objects/foils/foil_1134.JPG	0	5%	None	1.742	0
140.0	3.5	First	stimuli/objects/setsof2/084a.jpg	84	3#	New	0.995	0
143.5	3.5	Repeat	stimuli/objects/setsof2/058a.jpg	58	1!	Old	1.432	0
147.0	3.5	Foil	stimuli/objects/foils/foil_1425.JPG	0	3#	New	1.409	0
150.5	3.5	Foil	stimuli/objects/foils/foil_1346.JPG	0	5%	None	1.741	0
154.0	3.5	Lure	stimuli/objects/setsof2/033b.jpg	33	5%	None	1.740	4
157.5	3.5	Foil	stimuli/objects/foils/foil_1196.JPG	0	3#	New	0.915	0
161.0	3.5	First	stimuli/objects/setsof2/041b.jpg	41	3#	New	1.496	0
164.5	3.5	Foil	stimuli/objects/foils/foil_1668.jpg	0	3#	New	0.868	0
168.0	3.5	First	stimuli/objects/setsof2/065a.jpg	65	3#	New	1.138	0
171.5	3.5	First	stimuli/objects/setsof2/027b.jpg	27	3#	New	0.865	0
175.0	3.5	Repeat	stimuli/objects/setsof2/183b.jpg	183	5%	None	1.739	0
178.5	3.5	Foil	stimuli/objects/foils/foil_1147.JPG	0	5%	None	1.739	0
182.0	3.5	Foil	stimuli/objects/foils/foil_1510.JPG	0	3#	New	0.952	0
185.5	3.5	First	stimuli/objects/setsof2/149b.jpg	149	3#	New	0.886	0
189.0	3.5	Lure	stimuli/objects/setsof2/065b.jpg	65	5%	None	1.739	2
192.5	3.5	Lure	stimuli/objects/setsof2/035a.jpg	35	5%	None	1.739	3
196.0	3.5	First	stimuli/objects/setsof2/003b.jpg	3	3#	New	1.383	0
199.5	3.5	Foil	stimuli/objects/foils/foil_1152.JPG	0	3#	New	1.630	0
203.0	3.5	Lure	stimuli/objects/setsof2/068a.jpg	68	1!	Old	1.681	5
206.5	3.5	Foil	stimuli/objects/foils/foil_1058.JPG	0	3#	New	0.852	0
210.0	3.5	Repeat	stimuli/objects/setsof2/084a.jpg	84	1!	Old	1.331	0
213.5	3.5	First	stimuli/objects/setsof2/009a.jpg	9	3#	New	1.344	0
217.0	3.5	First	stimuli/objects/setsof2/016b.jpg	16	3#	New	1.168	0
220.5	3.5	Foil	stimuli/objects/foils/foil_1427.JPG	0	3#	New	0.909	0
224.0	3.5	Foil	stimuli/objects/foils/foil_1126.JPG	0	3#	New	1.061	0
227.5	3.5	Foil	stimuli/objects/foils/foil_1230.JPG	0	3#	New	1.582	0
231.0	3.5	First	stimuli/objects/setsof2/136b.jpg	136	3#	New	0.995	0
234.5	3.5	First	stimuli/objects/setsof2/045a.jpg	45	3#	New	0.984	0
238.0	3.5	Lure	stimuli/objects/setsof2/009b.jpg	9	5%	None	1.735	4
241.5	3.5	Lure	stimuli/objects/setsof2/041a.jpg	41	5%	None	1.735	6
245.0	3.5	Foil	stimuli/objects/foils/foil_1537.JPG	0	3#	New	1.039	0
248.5	3.5	Lure	stimuli/objects/setsof2/191b.jpg	191	2@	Similar	1.552	5
252.0	3.5	First	stimuli/objects/setsof2/127a.jpg	127	3#	New	1.375	0
255.5	3.5	First	stimuli/objects/setsof2/063b.jpg	63	3#	New	1.304	0
259.0	3.5	Lure	stimuli/objects/setsof2/136a.jpg	136	5%	None	1.734	1
262.5	3.5	Foil	stimuli/objects/foils/foil_1391.JPG	0	3#	New	1.157	0
266.0	3.5	First	stimuli/objects/setsof2/125a.jpg	125	3#	New	1.656	0
269.5	3.5	Foil	stimuli/objects/foils/foil_1069.JPG	0	3#	New	1.363	0
273.0	3.5	Lure	stimuli/objects/setsof2/123a.jpg	123	2@	Similar	1.618	2
276.5	3.5	Foil	stimuli/objects/foils/foil_1227.JPG	0	3#	New	0.898	0
280.0	3.5	Repeat	stimuli/objects/setsof2/127a.jpg	127	5%	None	1.733	0
283.5	3.5	First	stimuli/objects/setsof2/056a.jpg	56	3#	New	1.082	0
287.0	3.5	Repeat	stimuli/objects/setsof2/016b.jpg	16	1!	Old	1.713	0
290.5	3.5	Repeat	stimuli/objects/setsof2/063b.jpg	63	1!	Old	1.255	0
294.0	3.5	Foil	stimuli/objects/foils/foil_1687.JPG	0	3#	New	0.826	0
297.5	3.5	First	stimuli/objects/setsof2/088a.jpg	88	3#	New	0.895	0
301.0	3.5	Repeat	stimuli/objects/setsof2/125a.jpg	125	1!	Old	1.345	0
304.5	3.5	First	stimuli/objects/setsof2/086b.jpg	86	3#	New	0.850	0
308.0	3.5	Lure	stimuli/objects/setsof2/045b.jpg	45	2@	Similar	1.319	3
311.5	3.5	Lure	stimuli/objects/setsof2/027a.jpg	27	1!	Old	1.483	6
315.0	3.5	Foil	stimuli/objects/foils/foil_1266.JPG	0	3#	New	1.655	0
318.5	3.5	First	stimuli/objects/setsof2/008a.jpg	8	3#	New	1.415	0
322.0	3.5	Repeat	stimuli/objects/setsof2/149b.jpg	149	5%	None	1.731	0
325.5	3.5	First	stimuli/objects/setsof2/126b.jpg	126	5%	None	1.730	0
329.0	3.5	First	stimuli/objects/setsof2/080a.jpg	80	3#	New	1.309	0
332.5	3.5	Lure	stimuli/objects/setsof2/003a.jpg	3	2@	Similar	1.388	1
336.0	3.5	Foil	stimuli/objects/foils/foil_1268.JPG	0	3#	New	1.408	0
339.5	3.5	Foil	stimuli/objects/foils/foil_1277.JPG	0	5%	None	1.730	0
343.0	3.5	Repeat	stimuli/objects/setsof2/126b.jpg	126	5%	None	1.730	0
346.5	3.5	Repeat	stimuli/objects/setsof2/056a.jpg	56	1!	Old	1.267	0
350.0	3.5	Foil	stimuli/objects/foils/foil_1360.JPG	0	3#	New	1.520	0
353.5	3.5	Foil	stimuli/objects/foils/foil_1263.JPG	0	3#	New	1.422	0
357.0	3.5	Repeat	stimuli/objects/setsof2/086b.jpg	86	1!	Old	1.077	0
360.5	3.5	Foil	stimuli/objects/foils/foil_1712.JPG	0	3#	New	1.092	0
364.0	3.5	Repeat	stimuli/objects/setsof2/080a.jpg	80	1!	Old	1.168	0
367.5	3.5	Repeat	stimuli/objects/setsof2/088a.jpg	88	1!	Old	0.943	0
371.0	3.5	Lure	stimuli/objects/setsof2/008b.jpg	8	2@	Similar	1.364	3
