onset	duration	trial_type	stimulus_name	set_num	keypress	response	rt	similarity_bin
0.0	3.5	Foil	stimuli/objects/foils/foil_1451.JPG	0	3#	New	1.095	0
3.5	3.5	First	stimuli/objects/setsof2/107b.jpg	107	3#	New	1.032	0
7.0	3.5	Foil	stimuli/objects/foils/foil_1257.JPG	0	3#	New	1.460	0
10.5	3.5	Foil	stimuli/objects/foils/foil_1264.JPG	0	3#	New	1.147	0
14.0	3.5	First	stimuli/objects/setsof2/030b.jpg	30	3#	New	1.523	0
17.5	3.5	Foil	stimuli/objects/foils/foil_1272.JPG	0	3#	New	1.672	0
21.0	3.5	Foil	stimuli/objects/foils/foil_1076.JPG	0	3#	New	1.312	0
24.5	3.5	First	stimuli/objects/setsof2/087a.jpg	87	3#	New	1.620	0
28.0	3.5	Foil	stimuli/objects/foils/foil_1269.JPG	0	3#	New	1.525	0
31.5	3.5	Foil	stimuli/objects/foils/foil_1728.jpg	0	3#	New	1.236	0
35.0	3.5	First	stimuli/objects/setsof2/179a.jpg	179	3#	New	1.510	0
38.5	3.5	Foil	stimuli/objects/foils/foil_1141.JPG	0	3#	New	1.243	0
42.0	3.5	Foil	stimuli/objects/foils/foil_1365.jpg	0	3#	New	1.533	0
45.5	3.5	First	stimuli/objects/setsof2/175b.jpg	175	3#	New	1.115	0
49.0	3.5	Lure	stimuli/objects/setsof2/030a.jpg	30	5%	None	1.744	1
52.5	3.5	Foil	stimuli/objects/foils/foil_1023.jpg	0	3#	New	1.279	0
56.0	3.5	Lure	stimuli/objects/setsof2/107a.jpg	107	2@	Similar	1.424	3
59.5	3.5	First	stimuli/objects/setsof2/116a.jpg	116	3#	New	1.002	0
63.0	3.5	Foil	stimuli/objects/foils/foil_1295.JPG	0	3#	New	1.473	0
66.5	3.5	Repeat	stimuli/objects/setsof2/087a.jpg	87	5%	None	1.743	0
70.0	3.5	Lure	stimuli/objects/setsof2/179b.jpg	179	5%	None	1.743	6
73.5	3.5	Foil	stimuli/objects/foils/foil_1645.JPG	0	3#	New	1.353	0
77.0	3.5	First	stimuli/objects/setsof2/089a.jpg	89	3#	New	1.013	0
80.5	3.5	Foil	stimuli/objects/foils/foil_1595.JPG	0	3#	New	1.553	0
84.0	3.5	Foil	stimuli/objects/foils/foil_1207.JPG	0	3#	New	1.258	0
87.5	3.5	First	stimuli/objects/setsof2/131a.jpg	131	3#	New	1.350	0
91.0	3.5	Lure	stimuli/objects/setsof2/116b.jpg	116	5%	None	1.742	4
94.5	3.5	First	stimuli/objects/setsof2/138b.jpg	138	3#	New	1.018	0
98.0	3.5	Foil	stimuli/objects/foils/foil_1452.JPG	0	3#	New	1.606	0
101.5	3.5	Lure	stimuli/objects/setsof2/089b.jpg	89	5%	None	1.741	3
105.0	3.5	First	stimuli/objects/setsof2/016a.jpg	16	3#	New	1.026	0
108.5	3.5	Foil	stimuli/objects/foils/foil_1338.JPG	0	3#	New	1.608	0
112.0	3.5	Repeat	stimuli/objects/setsof2/131a.jpg	131	1!	Old	1.109	0
115.5	3.5	First	stimuli/objects/setsof2/108b.jpg	108	3#	New	1.006	0
119.0	3.5	Foil	stimuli/objects/foils/foil_1533.JPG	0	3#	New	1.059	0
122.5	3.5	Lure	stimuli/objects/setsof2/138a.jpg	138	5%	None	1.741	2
126.0	3.5	Foil	stimuli/objects/foils/foil_1454.JPG	0	3#	New	1.313	0
129.5	3.5	First	stimuli/objects/setsof2/122b.jpg	122	3#	New	0.973	0
133.0	3.5	Foil	stimuli/objects/foils/foil_1469.JPG	0	3#	New	1.312	0
136.5	3.5	First	stimuli/objects/setsof2/084a.jpg	84	3#	New	1.629	0
140.0	3.5	Foil	stimuli/objects/foils/foil_1704.JPG	0	5%	None	1.739	0
143.5	3.5	First	stimuli/objects/setsof2/099b.jpg	99	5%	None	1.739	0
147.0	3.5	Foil	stimuli/objects/foils/foil_1556.JPG	0	3#	New	1.660	0
150.5	3.5	First	stimuli/objects/setsof2/013b.jpg	13	3#	New	1.307	0
154.0	3.5	Foil	stimuli/objects/foils/foil_1280.JPG	0	3#	New	1.259	0
157.5	3.5	Foil	stimuli/objects/foils/foil_1219.JPG	0	3#	New	1.484	0
161.0	3.5	Foil	stimuli/objects/foils/foil_1389.JPG	0	3#	New	1.641	0
164.5	3.5	First	stimuli/objects/setsof2/043b.jpg	43	3#	New	1.373	0
168.0	3.5	Foil	stimuli/objects/foils/foil_1324.jpg	0	3#	New	1.365	0
171.5	3.5	First	stimuli/objects/setsof2/001b.jpg	1	3#	New	1.096	0
175.0	3.5	Foil	stimuli/objects/foils/foil_1309.JPG	0	3#	New	1.490	0
178.5	3.5	Foil	stimuli/objects/foils/foil_1560.JPG	0	3#	New	1.390	0
182.0	3.5	Lure	stimuli/objects/setsof2/099a.jpg	99	1!	Old	1.387	6
185.5	3.5	First	stimuli/objects/setsof2/024a.jpg	24	3#	New	1.229	0
189.0	3.5	Repeat	stimuli/objects/setsof2/175b.jpg	175	5%	None	1.736	0
192.5	3.5	Foil	stimuli/objects/foils/foil_1216.JPG	0	3#	New	1.272	0
196.0	3.5	First	stimuli/objects/setsof2/143a.jpg	143	3#	New	1.722	0
199.5	3.5	Foil	stimuli/objects/foils/foil_1065.JPG	0	3#	New	1.063	0
203.0	3.5	First	stimuli/objects/setsof2/037b.jpg	37	3#	New	1.557	0
206.5	3.5	Lure	stimuli/objects/setsof2/001a.jpg	1	1!	Old	1.278	3
210.0	3.5	Foil	stimuli/objects/foils/foil_1009.jpg	0	3#	New	1.301	0
213.5	3.5	Foil	stimuli/objects/foils/foil_1045.JPG	0	3#	New	1.233	0
217.0	3.5	Foil	stimuli/objects/foils/foil_1474.JPG	0	5%	None	1.734	0
220.5	3.5	Repeat	stimuli/objects/setsof2/013b.jpg	13	1!	Old	0.974	0
224.0	3.5	First	stimuli/objects/setsof2/157a.jpg	157	3#	New	0.909	0
227.5	3.5	Foil	stimuli/objects/foils/foil_1302.JPG	0	3#	New	1.696	0
231.0	3.5	Foil	stimuli/objects/foils/foil_1713.JPG	0	3#	New	1.003	0
234.5	3.5	First	stimuli/objects/setsof2/088a.jpg	88	3#	New	1.355	0
238.0	3.5	First	stimuli/objects/setsof2/059a.jpg	59	3#	New	0.978	0
241.5	3.5	Lure	stimuli/objects/setsof2/016b.jpg	16	1!	Old	1.627	2
245.0	3.5	First	stimuli/objects/setsof2/076a.jpg	76	3#	New	0.908	0
248.5	3.5	Lure	stimuli/objects/setsof2/108a.jpg	108	5%	None	1.733	5
252.0	3.5	Foil	stimuli/objects/foils/foil_1038.JPG	0	3#	New	1.245	0
255.5	3.5	First	stimuli/objects/setsof2/085a.jpg	85	3#	New	0.976	0
259.0	3.5	Foil	stimuli/objects/foils/foil_1607.JPG	0	3#	New	1.236	0
262.5	3.5	Foil	stimuli/objects/foils/foil_1722.JPG	0	3#	New	1.290	0
266.0	3.5	First	stimuli/objects/setsof2/155a.jpg	155	3#	New	1.579	0
269.5	3.5	Repeat	stimuli/objects/setsof2/122b.jpg	122	1!	Old	1.353	0
273.0	3.5	Repeat	stimuli/objects/setsof2/084a.jpg	84	1!	Old	0.950	0
276.5	3.5	First	stimuli/objects/setsof2/161b.jpg	161	3#	New	0.973	0
280.0	3.5	Repeat	stimuli/objects/setsof2/076a.jpg	76	1!	Old	0.964	0
283.5	3.5	Repeat	stimuli/objects/setsof2/059a.jpg	59	1!	Old	1.594	0
287.0	3.5	First	stimuli/objects/setsof2/036b.jpg	36	3#	New	0.955	0
290.5	3.5	Repeat	stimuli/objects/setsof2/085a.jpg	85	1!	Old	1.612	0
294.0	3.5	Repeat	stimuli/objects/setsof2/157a.jpg	157	1!	Old	0.985	0
297.5	3.5	Repeat	stimuli/objects/setsof2/037b.jpg	37	1!	Old	0.914	0
301.0	3.5	First	stimuli/objects/setsof2/066a.jpg	66	3#	New	0.906	0
304.5	3.5	Repeat	stimuli/objects/setsof2/088a.jpg	88	1!	Old	0.965	0
308.0	3.5	First	stimuli/objects/setsof2/151a.jpg	151	3#	New	1.677	0
311.5	3.5	Lure	stimuli/objects/setsof2/043a.jpg	43	1!	Old	1.488	5
315.0	3.5	Foil	stimuli/objects/foils/foil_1249.JPG	0	3#	New	1.529	0
318.5	3.5	Repeat	stimuli/objects/setsof2/161b.jpg	161	1!	Old	1.033	0
322.0	3.5	First	stimuli/objects/setsof2/115b.jpg	115	3#	New	1.427	0
325.5	3.5	Lure	stimuli/objects/setsof2/024b.jpg	24	5%	None	1.729	6
329.0	3.5	First	stimuli/objects/setsof2/021a.jpg	21	3#	New	1.311	0
332.5	3.5	Lure	stimuli/objects/setsof2/143b.jpg	143	5%	None	1.729	4
336.0	3.5	Repeat	stimuli/objects/setsof2/155a.jpg	155	1!	Old	1.083	0
339.5	3.5	Foil	stimuli/objects/foils/foil_1096.JPG	0	3#	New	0.937	0
343.0	3.5	Lure	stimuli/objects/setsof2/151b.jpg	151	1!	Old	1.330	6
346.5	3.5	Foil	stimuli/objects/foils/foil_1716.JPG	0	3#	New	1.394	0
350.0	3.5	Foil	stimuli/objects/foils/foil_1626.JPG	0	3#	New	1.215	0
353.5	3.5	Repeat	stimuli/objects/setsof2/115b.jpg	115	1!	Old	1.359	0
357.0	3.5	Foil	stimuli/objects/foils/foil_1396.JPG	0	3#	New	1.330	0
360.5	3.5	Foil	stimuli/objects/foils/foil_1643.JPG	0	3#	New	1.112	0
364.0	3.5	Lure	stimuli/objects/setsof2/036a.jpg	36	1!	Old	1.350	4
367.5	3.5	Lure	stimuli/objects/setsof2/066b.jpg	66	1!	Old	1.237	2
371.0	3.5	Repeat	stimuli/objects/setsof2/021a.jpg	21	1!	Old	0.908	0
