onset	duration	trial_type	stimulus_name	set_num	keypress	response	rt	similarity_bin
0.0	3.5	Foil	stimuli/objects/foils/foil_1265.JPG	0	3#	New	1.372	0
3.5	3.5	First	stimuli/objects/setsof2/003a.jpg	3	3#	New	1.125	0
7.0	3.5	Foil	stimuli/objects/foils/foil_1342.JPG	0	3#	New	1.128	0
10.5	3.5	Foil	stimuli/objects/foils/foil_1653.JPG	0	3#	New	1.165	0
14.0	3.5	Foil	stimuli/objects/foils/foil_1591.JPG	0	3#	New	1.563	0
17.5	3.5	First	stimuli/objects/setsof2/109a.jpg	109	3#	New	1.099	0
21.0	3.5	Foil	stimuli/objects/foils/foil_1394.JPG	0	3#	New	1.052	0
24.5	3.5	First	stimuli/objects/setsof2/132a.jpg	132	3#	New	1.314	0
28.0	3.5	Foil	stimuli/objects/foils/foil_1324.jpg	0	3#	New	1.037	0
31.5	3.5	Foil	stimuli/objects/foils/foil_1080.JPG	0	3#	New	1.010	0
35.0	3.5	Foil	stimuli/objects/foils/foil_1717.JPG	0	3#	New	1.305	0
38.5	3.5	First	stimuli/objects/setsof2/160a.jpg	160	3#	New	1.525	0
42.0	3.5	Foil	stimuli/objects/foils/foil_1381.JPG	0	3#	New	1.475	0
45.5	3.5	Foil	stimuli/objects/foils/foil_1382.JPG	0	3#	New	1.100	0
49.0	3.5	First	stimuli/objects/setsof2/169b.jpg	169	3#	New	1.005	0
52.5	3.5	Foil	stimuli/objects/foils/foil_1061.JPG	0	3#	New	1.375	0
56.0	3.5	First	stimuli/objects/setsof2/135b.jpg	135	3#	New	1.438	0
59.5	3.5	Repeat	stimuli/objects/setsof2/132a.jpg	132	5%	None	1.745	0
63.0	3.5	Lure	stimuli/objects/setsof2/109b.jpg	109	1!	Old	1.601	3
66.5	3.5	First	stimuli/objects/setsof2/190b.jpg	190	3#	New	1.178	0
70.0	3.5	Foil	stimuli/objects/foils/foil_1264.JPG	0	3#	New	1.154	0
73.5	3.5	Foil	stimuli/objects/foils/foil_1058.JPG	0	3#	New	1.569	0
77.0	3.5	First	stimuli/objects/setsof2/141b.jpg	141	3#	New	1.132	0
80.5	3.5	Foil	stimuli/objects/foils/foil_1471.JPG	0	3#	New	0.971	0
84.0	3.5	Foil	stimuli/objects/foils/foil_1367.JPG	0	3#	New	1.316	0
87.5	3.5	Foil	stimuli/objects/foils/foil_1163.JPG	0	3#	New	1.256	0
91.0	3.5	Foil	stimuli/objects/foils/foil_1261.JPG	0	3#	New	1.277	0
94.5	3.5	Foil	stimuli/objects/foils/foil_1214.JPG	0	3#	New	1.079	0
98.0	3.5	First	stimuli/objects/setsof2/024a.jpg	24	5%	None	1.743	0
101.5	3.5	Foil	stimuli/objects/foils/foil_1282.JPG	0	5%	None	1.743	0
105.0	3.5	Foil	stimuli/objects/foils/foil_1158.JPG	0	3#	New	1.600	0
108.5	3.5	First	stimuli/objects/setsof2/054b.jpg	54	3#	New	1.562	0
112.0	3.5	Lure	stimuli/objects/setsof2/141a.jpg	141	5%	None	1.742	3
115.5	3.5	First	stimuli/objects/setsof2/042b.jpg	42	3#	New	1.084	0
119.0	3.5	Foil	stimuli/objects/foils/foil_1134.JPG	0	3#	New	1.678	0
122.5	3.5	First	stimuli/objects/setsof2/062a.jpg	62	5%	None	1.741	0
126.0	3.5	Foil	stimuli/objects/foils/foil_1288.jpg	0	5%	None	1.741	0
129.5	3.5	Lure	stimuli/objects/setsof2/042a.jpg	42	2@	Similar	1.313	3
133.0	3.5	First	stimuli/objects/setsof2/173b.jpg	173	5%	None	1.740	0
136.5	3.5	Foil	stimuli/objects/foils/foil_1661.JPG	0	3#	New	1.343	0
140.0	3.5	First	stimuli/objects/setsof2/081b.jpg	81	3#	New	1.477	0
143.5	3.5	Lure	stimuli/objects/setsof2/003b.jpg	3	5%	None	1.740	1
147.0	3.5	Foil	stimuli/objects/foils/foil_1446.JPG	0	5%	None	1.740	0
150.5	3.5	Foil	stimuli/objects/foils/foil_1101.JPG	0	3#	New	1.570	0
154.0	3.5	First	stimuli/objects/setsof2/065b.jpg	65	5%	None	1.740	0
157.5	3.5	Foil	stimuli/objects/foils/foil_1123.JPG	0	3#	New	1.317	0
161.0	3.5	First	stimuli/objects/setsof2/138a.jpg	138	3#	New	1.678	0
164.5	3.5	Foil	stimuli/objects/foils/foil_1437.JPG	0	3#	New	1.441	0
168.0	3.5	Foil	stimuli/objects/foils/foil_1567.JPG	0	3#	New	1.278	0
171.5	3.5	First	stimuli/objects/setsof2/116b.jpg	116	3#	New	1.305	0
175.0	3.5	Repeat	stimuli/objects/setsof2/160a.jpg	160	1!	Old	1.532	0
178.5	3.5	Foil	stimuli/objects/foils/foil_1192.JPG	0	3#	New	1.166	0
182.0	3.5	Repeat	stimuli/objects/setsof2/054b.jpg	54	1!	Old	1.450	0
185.5	3.5	First	stimuli/objects/setsof2/020b.jpg	20	5%	None	1.738	0
189.0	3.5	Repeat	stimuli/objects/setsof2/169b.jpg	169	5%	None	1.738	0
192.5	3.5	Foil	stimuli/objects/foils/foil_1406.JPG	0	3#	New	1.354	0
196.0	3.5	Lure	stimuli/objects/setsof2/135a.jpg	135	5%	None	1.737	1
199.5	3.5	Foil	stimuli/objects/foils/foil_1424.JPG	0	3#	New	1.428	0
203.0	3.5	First	stimuli/objects/setsof2/023b.jpg	23	3#	New	1.327	0
206.5	3.5	First	stimuli/objects/setsof2/037a.jpg	37	3#	New	1.400	0
210.0	3.5	Lure	stimuli/objects/setsof2/081a.jpg	81	2@	Similar	1.458	1
213.5	3.5	Repeat	stimuli/objects/setsof2/190b.jpg	190	1!	Old	1.423	0
217.0	3.5	Repeat	stimuli/objects/setsof2/020b.jpg	20	1!	Old	1.329	0
220.5	3.5	Lure	stimuli/objects/setsof2/065a.jpg	65	5%	None	1.735	2
224.0	3.5	First	stimuli/objects/setsof2/069b.jpg	69	3#	New	1.193	0
227.5	3.5	Lure	stimuli/objects/setsof2/023a.jpg	23	5%	None	1.735	3
231.0	3.5	Lure	stimuli/objects/setsof2/138b.jpg	138	2@	Similar	1.711	2
234.5	3.5	First	stimuli/objects/setsof2/167b.jpg	167	3#	New	1.023	0
238.0	3.5	Repeat	stimuli/objects/setsof2/024a.jpg	24	5%	None	1.735	0
241.5	3.5	Lure	stimuli/objects/setsof2/116a.jpg	116	2@	Similar	1.499	4
245.0	3.5	First	stimuli/objects/setsof2/106b.jpg	106	5%	None	1.734	0
248.5	3.5	First	stimuli/objects/setsof2/090a.jpg	90	3#	New	0.951	0
252.0	3.5	Foil	stimuli/objects/foils/foil_1559.JPG	0	3#	New	1.639	0
255.5	3.5	Repeat	stimuli/objects/setsof2/069b.jpg	69	1!	Old	1.254	0
259.0	3.5	First	stimuli/objects/setsof2/028b.jpg	28	3#	New	1.634	0
262.5	3.5	Foil	stimuli/objects/foils/foil_1352.JPG	0	3#	New	1.490	0
266.0	3.5	First	stimuli/objects/setsof2/192b.jpg	192	5%	None	1.733	0
269.5	3.5	Lure	stimuli/objects/setsof2/062b.jpg	62	1!	Old	1.347	2
273.0	3.5	Lure	stimuli/objects/setsof2/037b.jpg	37	1!	Old	1.220	6
276.5	3.5	First	stimuli/objects/setsof2/182b.jpg	182	3#	New	1.192	0
280.0	3.5	Repeat	stimuli/objects/setsof2/090a.jpg	90	5%	None	1.732	0
283.5	3.5	Foil	stimuli/objects/foils/foil_1171.JPG	0	3#	New	0.823	0
287.0	3.5	Lure	stimuli/objects/setsof2/173a.jpg	173	5%	None	1.731	1
290.5	3.5	First	stimuli/objects/setsof2/108a.jpg	108	3#	New	0.925	0
294.0	3.5	Repeat	stimuli/objects/setsof2/028b.jpg	28	1!	Old	1.505	0
297.5	3.5	First	stimuli/objects/setsof2/057a.jpg	57	3#	New	0.768	0
301.0	3.5	Lure	stimuli/objects/setsof2/167a.jpg	167	5%	None	1.731	3
304.5	3.5	Repeat	stimuli/objects/setsof2/106b.jpg	106	1!	Old	1.348	0
308.0	3.5	Lure	stimuli/objects/setsof2/192a.jpg	192	2@	Similar	1.248	2
311.5	3.5	Repeat	stimuli/objects/setsof2/182b.jpg	182	1!	Old	1.201	0
315.0	3.5	First	stimuli/objects/setsof2/122a.jpg	122	3#	New	1.494	0
318.5	3.5	First	stimuli/objects/setsof2/016b.jpg	16	5%	None	1.730	0
322.0	3.5	Foil	stimuli/objects/foils/foil_1295.JPG	0	3#	New	1.079	0
325.5	3.5	Foil	stimuli/objects/foils/foil_1574.JPG	0	3#	New	1.470	0
329.0	3.5	First	stimuli/objects/setsof2/125b.jpg	125	3#	New	0.993	0
332.5	3.5	Repeat	stimuli/objects/setsof2/057a.jpg	57	5%	None	1.728	0
336.0	3.5	Foil	stimuli/objects/foils/foil_1360.JPG	0	3#	New	1.058	0
339.5	3.5	Foil	stimuli/objects/foils/foil_1256.JPG	0	5%	None	1.728	0
343.0	3.5	Lure	stimuli/objects/setsof2/122b.jpg	122	2@	Similar	1.595	3
346.5	3.5	Repeat	stimuli/objects/setsof2/108a.jpg	108	5%	None	1.728	0
350.0	3.5	Foil	stimuli/objects/foils/foil_1170.JPG	0	3#	New	0.975	0
353.5	3.5	Repeat	stimuli/objects/setsof2/016b.jpg	16	2@	Similar	1.681	0
357.0	3.5	Foil	stimuli/objects/foils/foil_1276.JPG	0	3#	New	1.226	0
360.5	3.5	Foil	stimuli/objects/foils/foil_1679.jpg	0	5%	None	1.727	0
364.0	3.5	Foil	stimuli/objects/foils/foil_1581.JPG	0	3#	New	1.362	0
367.5	3.5	Foil	stimuli/objects/foils/foil_1384.JPG	0	3#	New	1.577	0
371.0	3.5	Repeat	stimuli/objects/setsof2/125b.jpg	125	1!	Old	1.663	0
