onset	duration	trial_type	stimulus_name	set_num	keypress	response	rt	similarity_bin
0.0	3.5	Foil	stimuli/objects/foils/foil_1320.JPG	0	3#	New	1.136	0
3.5	3.5	First	stimuli/objects/setsof2/112a.jpg	112	3#	New	0.507	0
7.0	3.5	Foil	stimuli/objects/foils/foil_1427.JPG	0	3#	New	0.682	0
10.5	3.5	Foil	stimuli/objects/foils/foil_1304.JPG	0	3#	New	0.941	0
14.0	3.5	First	stimuli/objects/setsof2/080b.jpg	80	3#	New	1.238	0
17.5	3.5	Foil	stimuli/objects/foils/foil_1046.JPG	0	5%	None	1.749	0
21.0	3.5	Foil	stimuli/objects/foils/foil_1292.JPG	0	3#	New	1.382	0
24.5	3.5	First	stimuli/objects/setsof2/055a.jpg	55	3#	New	1.023	0
28.0	3.5	Foil	stimuli/objects/foils/foil_1540.JPG	0	3#	New	0.989	0
31.5	3.5	Foil	stimuli/objects/foils/foil_1452.JPG	0	3#	New	0.719	0
35.0	3.5	First	stimuli/objects/setsof2/035b.jpg	35	3#	New	0.914	0
38.5	3.5	Lure	stimuli/objects/setsof2/112b.jpg	112	2@	Similar	1.199	1
42.0	3.5	Foil	stimuli/objects/foils/foil_1374.JPG	0	3#	New	1.327	0
45.5	3.5	First	stimuli/objects/setsof2/054b.jpg	54	3#	New	0.935	0
49.0	3.5	Lure	stimuli/objects/setsof2/080a.jpg	80	2@	Similar	1.002	1
52.5	3.5	Foil	stimuli/objects/foils/foil_1339.JPG	0	3#	New	0.896	0
56.0	3.5	Foil	stimuli/objects/foils/foil_1567.JPG	0	3#	New	0.915	0
59.5	3.5	Foil	stimuli/objects/foils/foil_1456.JPG	0	3#	New	0.825	0
63.0	3.5	First	stimuli/objects/setsof2/081a.jpg	81	3#	New	1.372	0
66.5	3.5	First	stimuli/objects/setsof2/036b.jpg	36	3#	New	0.938	0
70.0	3.5	Foil	stimuli/objects/foils/foil_1479.JPG	0	3#	New	1.005	0
73.5	3.5	Foil	stimuli/objects/foils/foil_1534.JPG	0	3#	New	1.319	0
77.0	3.5	First	stimuli/objects/setsof2/136b.jpg	136	3#	New	0.978	0
80.5	3.5	Repeat	stimuli/objects/setsof2/054b.jpg	54	1!	Old	0.966	0
84.0	3.5	Foil	stimuli/objects/foils/foil_1311.JPG	0	3#	New	1.124	0
87.5	3.5	Foil	stimuli/objects/foils/foil_1720.JPG	0	3#	New	0.982	0
91.0	3.5	Lure	stimuli/objects/setsof2/081b.jpg	81	2@	Similar	1.193	1
94.5	3.5	First	stimuli/objects/setsof2/186a.jpg	186	3#	New	1.029	0
98.0	3.5	First	stimuli/objects/setsof2/179b.jpg	179	3#	New	1.007	0
101.5	3.5	Repeat	stimuli/objects/setsof2/036b.jpg	36	1!	Old	1.024	0
105.0	3.5	Foil	stimuli/objects/foils/foil_1077.JPG	0	3#	New	0.970	0
108.5	3.5	First	stimuli/objects/setsof2/064b.jpg	64	3#	New	0.946	0
112.0	3.5	Foil	stimuli/objects/foils/foil_1607.JPG	0	3#	New	0.893	0
115.5	3.5	Foil	stimuli/objects/foils/foil_1269.JPG	0	5%	None	1.745	0
119.0	3.5	Foil	stimuli/objects/foils/foil_1235.JPG	0	3#	New	0.718	0
122.5	3.5	Foil	stimuli/objects/foils/foil_1003.jpg	0	3#	New	1.337	0
126.0	3.5	First	stimuli/objects/setsof2/152a.jpg	152	3#	New	0.781	0
129.5	3.5	First	stimuli/objects/setsof2/110a.jpg	110	3#	New	1.395	0
133.0	3.5	Foil	stimuli/objects/foils/foil_1392.JPG	0	3#	New	1.051	0
136.5	3.5	Foil	stimuli/objects/foils/foil_1422.JPG	0	3#	New	1.110	0
140.0	3.5	Foil	stimuli/objects/foils/foil_1308.JPG	0	3#	New	0.904	0
143.5	3.5	Lure	stimuli/objects/setsof2/064a.jpg	64	2@	Similar	1.178	5
147.0	3.5	First	stimuli/objects/setsof2/090b.jpg	90	3#	New	0.924	0
150.5	3.5	Foil	stimuli/objects/foils/foil_1467.JPG	0	3#	New	1.366	0
154.0	3.5	First	stimuli/objects/setsof2/161a.jpg	161	3#	New	0.907	0
157.5	3.5	Foil	stimuli/objects/foils/foil_1287.JPG	0	3#	New	1.019	0
161.0	3.5	First	stimuli/objects/setsof2/174a.jpg	174	3#	New	0.764	0
164.5	3.5	Foil	stimuli/objects/foils/foil_1145.JPG	0	3#	New	0.780	0
168.0	3.5	Foil	stimuli/objects/foils/foil_1152.JPG	0	3#	New	0.679	0
171.5	3.5	First	stimuli/objects/setsof2/074a.jpg	74	3#	New	0.686	0
175.0	3.5	Repeat	stimuli/objects/setsof2/055a.jpg	55	1!	Old	1.438	0
178.5	3.5	Repeat	stimuli/objects/setsof2/035b.jpg	35	1!	Old	1.335	0
182.0	3.5	First	stimuli/objects/setsof2/003b.jpg	3	3#	New	0.937	0
185.5	3.5	Foil	stimuli/objects/foils/foil_1626.JPG	0	3#	New	1.125	0
189.0	3.5	Foil	stimuli/objects/foils/foil_1494.JPG	0	3#	New	0.996	0
192.5	3.5	First	stimuli/objects/setsof2/153a.jpg	153	3#	New	0.974	0
196.0	3.5	Repeat	stimuli/objects/setsof2/174a.jpg	174	1!	Old	1.316	0
199.5	3.5	Foil	stimuli/objects/foils/foil_1039.JPG	0	3#	New	1.408	0
203.0	3.5	First	stimuli/objects/setsof2/102b.jpg	102	3#	New	1.008	0
206.5	3.5	Repeat	stimuli/objects/setsof2/110a.jpg	110	1!	Old	1.162	0
210.0	3.5	Foil	stimuli/objects/foils/foil_1553.JPG	0	3#	New	1.266	0
213.5	3.5	First	stimuli/objects/setsof2/084a.jpg	84	3#	New	0.865	0
217.0	3.5	Repeat	stimuli/objects/setsof2/136b.jpg	136	1!	Old	1.224	0
220.5	3.5	Foil	stimuli/objects/foils/foil_1520.JPG	0	3#	New	0.939	0
224.0	3.5	Lure	stimuli/objects/setsof2/090a.jpg	90	2@	Similar	0.916	3
227.5	3.5	Repeat	stimuli/objects/setsof2/186a.jpg	186	1!	Old	1.010	0
231.0	3.5	First	stimuli/objects/setsof2/089b.jpg	89	3#	New	1.300	0
234.5	3.5	Foil	stimuli/objects/foils/foil_1248.JPG	0	2@	Similar	0.976	0
238.0	3.5	First	stimuli/objects/setsof2/135a.jpg	135	2@	Similar	-2.524	0
241.5	3.5	Foil	stimuli/objects/foils/foil_1301.JPG	0	5%	None	1.747	0
245.0	3.5	First	stimuli/objects/setsof2/013b.jpg	13	3#	New	0.792	0
248.5	3.5	Repeat	stimuli/objects/setsof2/084a.jpg	84	1!	Old	1.081	0
252.0	3.5	Repeat	stimuli/objects/setsof2/179b.jpg	179	5%	None	1.738	0
255.5	3.5	First	stimuli/objects/setsof2/139b.jpg	139	5%	None	1.738	0
259.0	3.5	Lure	stimuli/objects/setsof2/003a.jpg	3	2@	Similar	1.109	1
262.5	3.5	Lure	stimuli/objects/setsof2/152b.jpg	152	5%	None	1.738	1
266.0	3.5	First	stimuli/objects/setsof2/103a.jpg	103	3#	New	0.944	0
269.5	3.5	Repeat	stimuli/objects/setsof2/135a.jpg	135	1!	Old	1.490	0
273.0	3.5	Repeat	stimuli/objects/setsof2/102b.jpg	102	1!	Old	0.938	0
276.5	3.5	Lure	stimuli/objects/setsof2/153b.jpg	153	2@	Similar	1.171	4
280.0	3.5	Lure	stimuli/objects/setsof2/013a.jpg	13	2@	Similar	1.180	5
283.5	3.5	Foil	stimuli/objects/foils/foil_1210.JPG	0	3#	New	0.920	0
287.0	3.5	First	stimuli/objects/setsof2/155b.jpg	155	3#	New	0.736	0
290.5	3.5	Lure	stimuli/objects/setsof2/161b.jpg	161	2@	Similar	0.912	4
294.0	3.5	Lure	stimuli/objects/setsof2/089a.jpg	89	2@	Similar	0.898	3
297.5	3.5	First	stimuli/objects/setsof2/058b.jpg	58	3#	New	1.195	0
301.0	3.5	Lure	stimuli/objects/setsof2/103b.jpg	103	2@	Similar	1.304	1
304.5	3.5	Foil	stimuli/objects/foils/foil_1579.JPG	0	3#	New	1.028	0
308.0	3.5	First	stimuli/objects/setsof2/165b.jpg	165	3#	New	1.157	0
311.5	3.5	Lure	stimuli/objects/setsof2/074b.jpg	74	1!	Old	1.305	6
315.0	3.5	First	stimuli/objects/setsof2/056a.jpg	56	1!	Old	0.936	0
318.5	3.5	Foil	stimuli/objects/foils/foil_1089.JPG	0	3#	New	0.974	0
322.0	3.5	First	stimuli/objects/setsof2/043b.jpg	43	3#	New	1.699	0
325.5	3.5	Repeat	stimuli/objects/setsof2/139b.jpg	139	1!	Old	1.064	0
329.0	3.5	First	stimuli/objects/setsof2/133a.jpg	133	3#	New	1.238	0
332.5	3.5	Lure	stimuli/objects/setsof2/058a.jpg	58	2@	Similar	1.505	2
336.0	3.5	Foil	stimuli/objects/foils/foil_1707.JPG	0	3#	New	1.011	0
339.5	3.5	Foil	stimuli/objects/foils/foil_1557.JPG	0	3#	New	0.906	0
343.0	3.5	Repeat	stimuli/objects/setsof2/155b.jpg	155	2@	Similar	1.129	0
346.5	3.5	Repeat	stimuli/objects/setsof2/056a.jpg	56	1!	Old	1.288	0
350.0	3.5	Foil	stimuli/objects/foils/foil_1254.JPG	0	3#	New	1.215	0
353.5	3.5	Repeat	stimuli/objects/setsof2/043b.jpg	43	1!	Old	1.146	0
357.0	3.5	Foil	stimuli/objects/foils/foil_1296.JPG	0	3#	New	0.958	0
360.5	3.5	Lure	stimuli/objects/setsof2/165a.jpg	165	2@	Similar	1.046	1
364.0	3.5	Lure	stimuli/objects/setsof2/133b.jpg	133	2@	Similar	1.221	2
367.5	3.5	Foil	stimuli/objects/foils/foil_1624.JPG	0	3#	New	1.173	0
371.0	3.5	Foil	stimuli/objects/foils/foil_1098.JPG	0	3#	New	0.960	0
