onset	duration	trial_type	stimulus_name	set_num	keypress	response	rt	similarity_bin
0.0	3.5	Foil	stimuli/objects/foils/foil_1234.JPG	0	3#	New	0.742	0
3.5	3.5	Foil	stimuli/objects/foils/foil_1195.JPG	0	3#	New	0.618	0
7.0	3.5	Foil	stimuli/objects/foils/foil_1508.JPG	0	3#	New	0.537	0
10.5	3.5	First	stimuli/objects/setsof2/017a.jpg	17	3#	New	0.385	0
14.0	3.5	First	stimuli/objects/setsof2/086b.jpg	86	3#	New	0.429	0
17.5	3.5	Foil	stimuli/objects/foils/foil_1544.JPG	0	3#	New	0.314	0
21.0	3.5	Foil	stimuli/objects/foils/foil_1442.JPG	0	3#	New	0.528	0
24.5	3.5	Foil	stimuli/objects/foils/foil_1690.JPG	0	3#	New	0.500	0
28.0	3.5	Foil	stimuli/objects/foils/foil_1174.JPG	0	3#	New	0.504	0
31.5	3.5	First	stimuli/objects/setsof2/077b.jpg	77	3#	New	0.511	0
35.0	3.5	First	stimuli/objects/setsof2/162b.jpg	162	3#	New	0.512	0
38.5	3.5	Repeat	stimuli/objects/setsof2/017a.jpg	17	1!	Old	1.018	0
42.0	3.5	Foil	stimuli/objects/foils/foil_1512.JPG	0	3#	New	0.669	0
45.5	3.5	First	stimuli/objects/setsof2/178a.jpg	178	3#	New	0.556	0
49.0	3.5	Foil	stimuli/objects/foils/foil_1381.JPG	0	3#	New	0.821	0
52.5	3.5	Foil	stimuli/objects/foils/foil_1025.jpg	0	3#	New	0.505	0
56.0	3.5	First	stimuli/objects/setsof2/001b.jpg	1	3#	New	0.612	0
59.5	3.5	Foil	stimuli/objects/foils/foil_1148.JPG	0	3#	New	0.879	0
63.0	3.5	Foil	stimuli/objects/foils/foil_1646.JPG	0	3#	New	0.523	0
66.5	3.5	First	stimuli/objects/setsof2/014b.jpg	14	3#	New	0.572	0
70.0	3.5	Repeat	stimuli/objects/setsof2/086b.jpg	86	2@	Similar	1.444	0
73.5	3.5	Foil	stimuli/objects/foils/foil_1124.JPG	0	3#	New	0.736	0
77.0	3.5	Repeat	stimuli/objects/setsof2/162b.jpg	162	1!	Old	1.585	0
80.5	3.5	First	stimuli/objects/setsof2/190a.jpg	190	3#	New	0.735	0
84.0	3.5	Foil	stimuli/objects/foils/foil_1122.JPG	0	3#	New	0.606	0
87.5	3.5	First	stimuli/objects/setsof2/044a.jpg	44	3#	New	0.591	0
91.0	3.5	Lure	stimuli/objects/setsof2/001a.jpg	1	2@	Similar	0.984	3
94.5	3.5	Foil	stimuli/objects/foils/foil_1276.JPG	0	3#	New	0.675	0
98.0	3.5	First	stimuli/objects/setsof2/150b.jpg	150	3#	New	1.026	0
101.5	3.5	Foil	stimuli/objects/foils/foil_1659.JPG	0	3#	New	0.715	0
105.0	3.5	Foil	stimuli/objects/foils/foil_1618.JPG	0	3#	New	0.891	0
108.5	3.5	First	stimuli/objects/setsof2/055b.jpg	55	3#	New	0.921	0
112.0	3.5	Lure	stimuli/objects/setsof2/190b.jpg	190	2@	Similar	1.122	3
115.5	3.5	Lure	stimuli/objects/setsof2/014a.jpg	14	2@	Similar	1.140	2
119.0	3.5	First	stimuli/objects/setsof2/132b.jpg	132	3#	New	0.832	0
122.5	3.5	Lure	stimuli/objects/setsof2/044b.jpg	44	2@	Similar	0.957	3
126.0	3.5	Foil	stimuli/objects/foils/foil_1114.JPG	0	3#	New	0.602	0
129.5	3.5	First	stimuli/objects/setsof2/103a.jpg	103	3#	New	0.853	0
133.0	3.5	Foil	stimuli/objects/foils/foil_1069.JPG	0	3#	New	0.630	0
136.5	3.5	Foil	stimuli/objects/foils/foil_1561.JPG	0	3#	New	0.660	0
140.0	3.5	Foil	stimuli/objects/foils/foil_1169.JPG	0	3#	New	0.628	0
143.5	3.5	Foil	stimuli/objects/foils/foil_1633.JPG	0	3#	New	0.460	0
147.0	3.5	Foil	stimuli/objects/foils/foil_1040.jpg	0	3#	New	0.862	0
150.5	3.5	First	stimuli/objects/setsof2/059b.jpg	59	3#	New	0.914	0
154.0	3.5	First	stimuli/objects/setsof2/180a.jpg	180	3#	New	0.581	0
157.5	3.5	Lure	stimuli/objects/setsof2/132a.jpg	132	5%	None	1.741	3
161.0	3.5	Foil	stimuli/objects/foils/foil_1209.JPG	0	3#	New	0.697	0
164.5	3.5	Repeat	stimuli/objects/setsof2/077b.jpg	77	2@	Similar	1.573	0
168.0	3.5	Foil	stimuli/objects/foils/foil_1244.JPG	0	3#	New	1.584	0
171.5	3.5	First	stimuli/objects/setsof2/005b.jpg	5	3#	New	1.483	0
175.0	3.5	Foil	stimuli/objects/foils/foil_1233.JPG	0	3#	New	1.341	0
178.5	3.5	First	stimuli/objects/setsof2/192b.jpg	192	3#	New	0.865	0
182.0	3.5	Foil	stimuli/objects/foils/foil_1533.JPG	0	3#	New	0.872	0
185.5	3.5	Repeat	stimuli/objects/setsof2/178a.jpg	178	1!	Old	1.316	0
189.0	3.5	First	stimuli/objects/setsof2/130b.jpg	130	3#	New	0.603	0
192.5	3.5	First	stimuli/objects/setsof2/147a.jpg	147	3#	New	1.160	0
196.0	3.5	Foil	stimuli/objects/foils/foil_1650.JPG	0	3#	New	0.629	0
199.5	3.5	Repeat	stimuli/objects/setsof2/103a.jpg	103	1!	Old	1.486	0
203.0	3.5	Foil	stimuli/objects/foils/foil_1338.JPG	0	3#	New	0.800	0
206.5	3.5	First	stimuli/objects/setsof2/091a.jpg	91	3#	New	0.974	0
210.0	3.5	Foil	stimuli/objects/foils/foil_1702.JPG	0	3#	New	0.813	0
213.5	3.5	First	stimuli/objects/setsof2/032a.jpg	32	3#	New	0.606	0
217.0	3.5	Foil	stimuli/objects/foils/foil_1044.JPG	0	3#	New	0.747	0
220.5	3.5	Lure	stimuli/objects/setsof2/059a.jpg	59	2@	Similar	1.711	1
224.0	3.5	First	stimuli/objects/setsof2/128b.jpg	128	3#	New	0.663	0
227.5	3.5	Foil	stimuli/objects/foils/foil_1441.JPG	0	3#	New	1.176	0
231.0	3.5	Foil	stimuli/objects/foils/foil_1535.JPG	0	3#	New	0.684	0
234.5	3.5	Lure	stimuli/objects/setsof2/005a.jpg	5	2@	Similar	1.264	3
238.0	3.5	First	stimuli/objects/setsof2/022a.jpg	22	3#	New	0.919	0
241.5	3.5	Foil	stimuli/objects/foils/foil_1204.JPG	0	3#	New	0.793	0
245.0	3.5	First	stimuli/objects/setsof2/038a.jpg	38	3#	New	1.060	0
248.5	3.5	Repeat	stimuli/objects/setsof2/055b.jpg	55	5%	None	1.737	0
252.0	3.5	Lure	stimuli/objects/setsof2/150a.jpg	150	5%	None	1.737	2
255.5	3.5	Foil	stimuli/objects/foils/foil_1351.JPG	0	3#	New	0.790	0
259.0	3.5	First	stimuli/objects/setsof2/033a.jpg	33	3#	New	0.497	0
262.5	3.5	Foil	stimuli/objects/foils/foil_1133.JPG	0	3#	New	0.769	0
266.0	3.5	First	stimuli/objects/setsof2/153b.jpg	153	3#	New	0.828	0
269.5	3.5	Lure	stimuli/objects/setsof2/128a.jpg	128	1!	Old	1.493	5
273.0	3.5	Repeat	stimuli/objects/setsof2/091a.jpg	91	1!	Old	1.557	0
276.5	3.5	First	stimuli/objects/setsof2/020a.jpg	20	3#	New	1.141	0
280.0	3.5	Lure	stimuli/objects/setsof2/022b.jpg	22	1!	Old	1.647	5
283.5	3.5	Repeat	stimuli/objects/setsof2/032a.jpg	32	1!	Old	0.971	0
287.0	3.5	Repeat	stimuli/objects/setsof2/180a.jpg	180	2@	Similar	1.089	0
290.5	3.5	Repeat	stimuli/objects/setsof2/033a.jpg	33	1!	Old	1.424	0
294.0	3.5	Foil	stimuli/objects/foils/foil_1410.JPG	0	3#	New	0.782	0
297.5	3.5	First	stimuli/objects/setsof2/121a.jpg	121	3#	New	0.774	0
301.0	3.5	First	stimuli/objects/setsof2/183b.jpg	183	1!	Old	1.374	0
304.5	3.5	Foil	stimuli/objects/foils/foil_1610.JPG	0	5%	None	1.734	0
308.0	3.5	First	stimuli/objects/setsof2/156b.jpg	156	3#	New	0.567	0
311.5	3.5	Repeat	stimuli/objects/setsof2/192b.jpg	192	1!	Old	1.179	0
315.0	3.5	Lure	stimuli/objects/setsof2/038b.jpg	38	5%	None	1.734	5
318.5	3.5	First	stimuli/objects/setsof2/015a.jpg	15	3#	New	0.642	0
322.0	3.5	Lure	stimuli/objects/setsof2/130a.jpg	130	5%	None	1.734	5
325.5	3.5	Foil	stimuli/objects/foils/foil_1613.JPG	0	3#	New	0.641	0
329.0	3.5	First	stimuli/objects/setsof2/143b.jpg	143	1!	Old	1.230	0
332.5	3.5	Lure	stimuli/objects/setsof2/147b.jpg	147	2@	Similar	1.426	1
336.0	3.5	Lure	stimuli/objects/setsof2/153a.jpg	153	2@	Similar	1.359	4
339.5	3.5	Foil	stimuli/objects/foils/foil_1516.JPG	0	2@	Similar	0.962	0
343.0	3.5	Repeat	stimuli/objects/setsof2/020a.jpg	20	1!	Old	1.628	0
346.5	3.5	Repeat	stimuli/objects/setsof2/156b.jpg	156	1!	Old	0.996	0
350.0	3.5	Foil	stimuli/objects/foils/foil_1431.JPG	0	3#	New	0.916	0
353.5	3.5	Lure	stimuli/objects/setsof2/015b.jpg	15	2@	Similar	1.177	2
357.0	3.5	Repeat	stimuli/objects/setsof2/183b.jpg	183	1!	Old	1.362	0
360.5	3.5	Foil	stimuli/objects/foils/foil_1062.JPG	0	3#	New	1.283	0
364.0	3.5	Lure	stimuli/objects/setsof2/143a.jpg	143	5%	None	1.732	4
367.5	3.5	Foil	stimuli/objects/foils/foil_1247.JPG	0	3#	New	1.015	0
371.0	3.5	Repeat	stimuli/objects/setsof2/121a.jpg	121	1!	Old	1.442	0
