onset	duration	trial_type	stimulus_name	set_num	keypress	response	rt	similarity_bin
0.0	3.5	Foil	stimuli/objects/foils/foil_1109.JPG	0	3#	New	1.286	0
3.5	3.5	Foil	stimuli/objects/foils/foil_1056.jpg	0	3#	New	0.892	0
7.0	3.5	Foil	stimuli/objects/foils/foil_1388.JPG	0	3#	New	0.755	0
10.5	3.5	Foil	stimuli/objects/foils/foil_1586.JPG	0	3#	New	0.554	0
14.0	3.5	First	stimuli/objects/setsof2/009b.jpg	9	3#	New	0.780	0
17.5	3.5	First	stimuli/objects/setsof2/111a.jpg	111	3#	New	0.525	0
21.0	3.5	Foil	stimuli/objects/foils/foil_1685.JPG	0	3#	New	0.842	0
24.5	3.5	First	stimuli/objects/setsof2/057a.jpg	57	3#	New	0.574	0
28.0	3.5	Foil	stimuli/objects/foils/foil_1477.JPG	0	3#	New	0.679	0
31.5	3.5	Foil	stimuli/objects/foils/foil_1413.JPG	0	3#	New	0.555	0
35.0	3.5	First	stimuli/objects/setsof2/015b.jpg	15	3#	New	0.685	0
38.5	3.5	Foil	stimuli/objects/foils/foil_1120.JPG	0	3#	New	0.561	0
42.0	3.5	Foil	stimuli/objects/foils/foil_1212.JPG	0	3#	New	0.820	0
45.5	3.5	Foil	stimuli/objects/foils/foil_1283.JPG	0	3#	New	0.565	0
49.0	3.5	Repeat	stimuli/objects/setsof2/009b.jpg	9	1!	Old	1.082	0
52.5	3.5	Foil	stimuli/objects/foils/foil_1552.JPG	0	3#	New	0.547	0
56.0	3.5	First	stimuli/objects/setsof2/068b.jpg	68	3#	New	0.607	0
59.5	3.5	Lure	stimuli/objects/setsof2/057b.jpg	57	2@	Similar	1.111	4
63.0	3.5	First	stimuli/objects/setsof2/039b.jpg	39	3#	New	0.671	0
66.5	3.5	Foil	stimuli/objects/foils/foil_1161.JPG	0	3#	New	1.637	0
70.0	3.5	Lure	stimuli/objects/setsof2/015a.jpg	15	2@	Similar	0.869	2
73.5	3.5	First	stimuli/objects/setsof2/035a.jpg	35	3#	New	0.739	0
77.0	3.5	Foil	stimuli/objects/foils/foil_1397.JPG	0	3#	New	0.896	0
80.5	3.5	Lure	stimuli/objects/setsof2/039a.jpg	39	2@	Similar	0.701	1
84.0	3.5	Foil	stimuli/objects/foils/foil_1550.JPG	0	3#	New	0.998	0
87.5	3.5	First	stimuli/objects/setsof2/158b.jpg	158	3#	New	1.274	0
91.0	3.5	First	stimuli/objects/setsof2/066a.jpg	66	3#	New	1.404	0
94.5	3.5	Repeat	stimuli/objects/setsof2/068b.jpg	68	5%	None	1.742	0
98.0	3.5	First	stimuli/objects/setsof2/087b.jpg	87	3#	New	0.921	0
101.5	3.5	Foil	stimuli/objects/foils/foil_1024.jpg	0	3#	New	0.704	0
105.0	3.5	Foil	stimuli/objects/foils/foil_1355.JPG	0	3#	New	0.937	0
108.5	3.5	First	stimuli/objects/setsof2/094b.jpg	94	3#	New	1.088	0
112.0	3.5	Foil	stimuli/objects/foils/foil_1540.JPG	0	3#	New	1.122	0
115.5	3.5	Foil	stimuli/objects/foils/foil_1637.JPG	0	3#	New	0.743	0
119.0	3.5	First	stimuli/objects/setsof2/082b.jpg	82	3#	New	0.691	0
122.5	3.5	Foil	stimuli/objects/foils/foil_1466.JPG	0	3#	New	0.873	0
126.0	3.5	Lure	stimuli/objects/setsof2/158a.jpg	158	1!	Old	0.919	6
129.5	3.5	First	stimuli/objects/setsof2/038b.jpg	38	3#	New	0.609	0
133.0	3.5	Foil	stimuli/objects/foils/foil_1658.JPG	0	5%	None	1.739	0
136.5	3.5	Foil	stimuli/objects/foils/foil_1066.JPG	0	3#	New	0.725	0
140.0	3.5	First	stimuli/objects/setsof2/083b.jpg	83	3#	New	0.768	0
143.5	3.5	Foil	stimuli/objects/foils/foil_1378.JPG	0	3#	New	0.628	0
147.0	3.5	Lure	stimuli/objects/setsof2/111b.jpg	111	2@	Similar	0.903	2
150.5	3.5	First	stimuli/objects/setsof2/029b.jpg	29	3#	New	0.946	0
154.0	3.5	Foil	stimuli/objects/foils/foil_1712.JPG	0	3#	New	0.641	0
157.5	3.5	Foil	stimuli/objects/foils/foil_1100.JPG	0	3#	New	0.584	0
161.0	3.5	Foil	stimuli/objects/foils/foil_1075.JPG	0	3#	New	0.803	0
164.5	3.5	Repeat	stimuli/objects/setsof2/038b.jpg	38	1!	Old	0.934	0
168.0	3.5	Foil	stimuli/objects/foils/foil_1176.JPG	0	3#	New	0.625	0
171.5	3.5	First	stimuli/objects/setsof2/041b.jpg	41	2@	Similar	1.418	0
175.0	3.5	Foil	stimuli/objects/foils/foil_1267.JPG	0	3#	New	0.631	0
178.5	3.5	First	stimuli/objects/setsof2/143b.jpg	143	3#	New	0.502	0
182.0	3.5	Repeat	stimuli/objects/setsof2/094b.jpg	94	1!	Old	1.217	0
185.5	3.5	Foil	stimuli/objects/foils/foil_1517.JPG	0	3#	New	1.109	0
189.0	3.5	Foil	stimuli/objects/foils/foil_1546.JPG	0	3#	New	1.221	0
192.5	3.5	First	stimuli/objects/setsof2/150b.jpg	150	3#	New	1.275	0
196.0	3.5	First	stimuli/objects/setsof2/148a.jpg	148	3#	New	0.657	0
199.5	3.5	Foil	stimuli/objects/foils/foil_1331.JPG	0	2@	Similar	0.952	0
203.0	3.5	First	stimuli/objects/setsof2/146b.jpg	146	3#	New	0.783	0
206.5	3.5	Repeat	stimuli/objects/setsof2/035a.jpg	35	5%	None	1.735	0
210.0	3.5	Foil	stimuli/objects/foils/foil_1203.JPG	0	3#	New	0.916	0
213.5	3.5	Repeat	stimuli/objects/setsof2/143b.jpg	143	1!	Old	0.826	0
217.0	3.5	Repeat	stimuli/objects/setsof2/066a.jpg	66	1!	Old	0.763	0
220.5	3.5	First	stimuli/objects/setsof2/145a.jpg	145	5%	None	1.734	0
224.0	3.5	Foil	stimuli/objects/foils/foil_1672.JPG	0	3#	New	0.741	0
227.5	3.5	Foil	stimuli/objects/foils/foil_1643.JPG	0	3#	New	0.695	0
231.0	3.5	Foil	stimuli/objects/foils/foil_1286.JPG	0	3#	New	0.770	0
234.5	3.5	First	stimuli/objects/setsof2/122b.jpg	122	3#	New	0.585	0
238.0	3.5	First	stimuli/objects/setsof2/156b.jpg	156	3#	New	0.562	0
241.5	3.5	Lure	stimuli/objects/setsof2/041a.jpg	41	1!	Old	1.077	6
245.0	3.5	First	stimuli/objects/setsof2/075a.jpg	75	3#	New	0.926	0
248.5	3.5	Repeat	stimuli/objects/setsof2/145a.jpg	145	1!	Old	0.781	0
252.0	3.5	Lure	stimuli/objects/setsof2/150a.jpg	150	2@	Similar	1.287	2
255.5	3.5	First	stimuli/objects/setsof2/032a.jpg	32	3#	New	0.515	0
259.0	3.5	Lure	stimuli/objects/setsof2/082a.jpg	82	5%	None	1.732	1
262.5	3.5	Foil	stimuli/objects/foils/foil_1310.JPG	0	3#	New	1.229	0
266.0	3.5	First	stimuli/objects/setsof2/129b.jpg	129	3#	New	0.999	0
269.5	3.5	Lure	stimuli/objects/setsof2/122a.jpg	122	2@	Similar	1.027	3
273.0	3.5	Lure	stimuli/objects/setsof2/146a.jpg	146	2@	Similar	1.032	1
276.5	3.5	First	stimuli/objects/setsof2/003b.jpg	3	3#	New	0.824	0
280.0	3.5	Lure	stimuli/objects/setsof2/087a.jpg	87	2@	Similar	0.814	1
283.5	3.5	Foil	stimuli/objects/foils/foil_1683.JPG	0	3#	New	0.835	0
287.0	3.5	Lure	stimuli/objects/setsof2/083a.jpg	83	2@	Similar	0.811	2
290.5	3.5	First	stimuli/objects/setsof2/131a.jpg	131	3#	New	0.833	0
294.0	3.5	Repeat	stimuli/objects/setsof2/029b.jpg	29	5%	None	1.729	0
297.5	3.5	Lure	stimuli/objects/setsof2/156a.jpg	156	2@	Similar	0.798	5
301.0	3.5	First	stimuli/objects/setsof2/153b.jpg	153	3#	New	0.637	0
304.5	3.5	Repeat	stimuli/objects/setsof2/129b.jpg	129	1!	Old	0.929	0
308.0	3.5	Foil	stimuli/objects/foils/foil_1430.JPG	0	3#	New	0.834	0
311.5	3.5	Lure	stimuli/objects/setsof2/003a.jpg	3	2@	Similar	0.847	1
315.0	3.5	First	stimuli/objects/setsof2/037b.jpg	37	3#	New	0.713	0
318.5	3.5	Repeat	stimuli/objects/setsof2/075a.jpg	75	1!	Old	0.787	0
322.0	3.5	First	stimuli/objects/setsof2/043a.jpg	43	3#	New	0.830	0
325.5	3.5	Lure	stimuli/objects/setsof2/032b.jpg	32	2@	Similar	1.321	4
329.0	3.5	First	stimuli/objects/setsof2/047b.jpg	47	3#	New	0.671	0
332.5	3.5	Repeat	stimuli/objects/setsof2/148a.jpg	148	1!	Old	0.879	0
336.0	3.5	Foil	stimuli/objects/foils/foil_1297.JPG	0	3#	New	0.636	0
339.5	3.5	Foil	stimuli/objects/foils/foil_1152.JPG	0	3#	New	1.330	0
343.0	3.5	Repeat	stimuli/objects/setsof2/037b.jpg	37	1!	Old	0.884	0
346.5	3.5	Repeat	stimuli/objects/setsof2/131a.jpg	131	1!	Old	0.828	0
350.0	3.5	Foil	stimuli/objects/foils/foil_1664.JPG	0	3#	New	0.768	0
353.5	3.5	Lure	stimuli/objects/setsof2/043b.jpg	43	1!	Old	0.707	5
357.0	3.5	Foil	stimuli/objects/foils/foil_1536.JPG	0	3#	New	0.601	0
360.5	3.5	Foil	stimuli/objects/foils/foil_1253.JPG	0	3#	New	0.789	0
364.0	3.5	Foil	stimuli/objects/foils/foil_1257.JPG	0	3#	New	0.760	0
367.5	3.5	Repeat	stimuli/objects/setsof2/047b.jpg	47	1!	Old	0.770	0
371.0	3.5	Repeat	stimuli/objects/setsof2/153b.jpg	153	1!	Old	1.624	0
