onset	duration	trial_type	stimulus_name	set_num	keypress	response	rt	similarity_bin
0.0	3.5	Foil	stimuli/objects/foils/foil_1098.JPG	0	3#	New	0.811	0
3.5	3.5	First	stimuli/objects/setsof2/158b.jpg	158	3#	New	0.649	0
7.0	3.5	Foil	stimuli/objects/foils/foil_1460.JPG	0	3#	New	0.538	0
10.5	3.5	Foil	stimuli/objects/foils/foil_1428.JPG	0	3#	New	0.458	0
14.0	3.5	First	stimuli/objects/setsof2/153b.jpg	153	3#	New	0.572	0
17.5	3.5	Foil	stimuli/objects/foils/foil_1685.JPG	0	3#	New	0.917	0
21.0	3.5	Foil	stimuli/objects/foils/foil_1502.JPG	0	3#	New	0.668	0
24.5	3.5	First	stimuli/objects/setsof2/170a.jpg	170	3#	New	0.859	0
28.0	3.5	Foil	stimuli/objects/foils/foil_1691.JPG	0	3#	New	0.732	0
31.5	3.5	Foil	stimuli/objects/foils/foil_1471.JPG	0	3#	New	0.728	0
35.0	3.5	First	stimuli/objects/setsof2/128b.jpg	128	3#	New	0.900	0
38.5	3.5	Foil	stimuli/objects/foils/foil_1464.JPG	0	3#	New	0.661	0
42.0	3.5	Foil	stimuli/objects/foils/foil_1174.JPG	0	3#	New	0.760	0
45.5	3.5	First	stimuli/objects/setsof2/123b.jpg	123	3#	New	0.790	0
49.0	3.5	Foil	stimuli/objects/foils/foil_1458.JPG	0	3#	New	0.804	0
52.5	3.5	Lure	stimuli/objects/setsof2/153a.jpg	153	2@	Similar	0.931	4
56.0	3.5	First	stimuli/objects/setsof2/059a.jpg	59	3#	New	0.766	0
59.5	3.5	Foil	stimuli/objects/foils/foil_1133.JPG	0	3#	New	0.920	0
63.0	3.5	Foil	stimuli/objects/foils/foil_1110.JPG	0	3#	New	0.974	0
66.5	3.5	Foil	stimuli/objects/foils/foil_1263.JPG	0	3#	New	0.777	0
70.0	3.5	Lure	stimuli/objects/setsof2/128a.jpg	128	1!	Old	1.284	5
73.5	3.5	Foil	stimuli/objects/foils/foil_1264.JPG	0	3#	New	0.888	0
77.0	3.5	First	stimuli/objects/setsof2/057b.jpg	57	3#	New	0.792	0
80.5	3.5	Foil	stimuli/objects/foils/foil_1218.JPG	0	3#	New	0.863	0
84.0	3.5	Foil	stimuli/objects/foils/foil_1230.JPG	0	3#	New	0.758	0
87.5	3.5	First	stimuli/objects/setsof2/173b.jpg	173	3#	New	0.953	0
91.0	3.5	First	stimuli/objects/setsof2/091b.jpg	91	3#	New	0.884	0
94.5	3.5	Foil	stimuli/objects/foils/foil_1590.jpg	0	3#	New	0.735	0
98.0	3.5	Repeat	stimuli/objects/setsof2/059a.jpg	59	1!	Old	0.968	0
101.5	3.5	Lure	stimuli/objects/setsof2/091a.jpg	91	2@	Similar	1.064	2
105.0	3.5	Foil	stimuli/objects/foils/foil_1286.JPG	0	3#	New	0.791	0
108.5	3.5	First	stimuli/objects/setsof2/092b.jpg	92	3#	New	0.776	0
112.0	3.5	First	stimuli/objects/setsof2/084a.jpg	84	3#	New	0.770	0
115.5	3.5	Foil	stimuli/objects/foils/foil_1560.JPG	0	3#	New	0.737	0
119.0	3.5	Foil	stimuli/objects/foils/foil_1672.JPG	0	3#	New	0.810	0
122.5	3.5	First	stimuli/objects/setsof2/132a.jpg	132	3#	New	0.761	0
126.0	3.5	Repeat	stimuli/objects/setsof2/173b.jpg	173	1!	Old	0.943	0
129.5	3.5	Foil	stimuli/objects/foils/foil_1162.JPG	0	3#	New	0.881	0
133.0	3.5	Repeat	stimuli/objects/setsof2/084a.jpg	84	1!	Old	1.139	0
136.5	3.5	Foil	stimuli/objects/foils/foil_1430.JPG	0	3#	New	0.773	0
140.0	3.5	First	stimuli/objects/setsof2/161b.jpg	161	3#	New	0.805	0
143.5	3.5	First	stimuli/objects/setsof2/191a.jpg	191	3#	New	0.954	0
147.0	3.5	Repeat	stimuli/objects/setsof2/158b.jpg	158	3#	New	0.933	0
150.5	3.5	First	stimuli/objects/setsof2/175b.jpg	175	3#	New	0.863	0
154.0	3.5	Foil	stimuli/objects/foils/foil_1038.JPG	0	3#	New	1.058	0
157.5	3.5	Foil	stimuli/objects/foils/foil_1269.JPG	0	3#	New	0.817	0
161.0	3.5	Foil	stimuli/objects/foils/foil_1177.JPG	0	3#	New	0.653	0
164.5	3.5	Repeat	stimuli/objects/setsof2/170a.jpg	170	1!	Old	0.928	0
168.0	3.5	First	stimuli/objects/setsof2/069a.jpg	69	3#	New	0.793	0
171.5	3.5	Foil	stimuli/objects/foils/foil_1141.JPG	0	3#	New	0.852	0
175.0	3.5	Repeat	stimuli/objects/setsof2/161b.jpg	161	1!	Old	0.887	0
178.5	3.5	First	stimuli/objects/setsof2/099a.jpg	99	3#	New	0.854	0
182.0	3.5	First	stimuli/objects/setsof2/078a.jpg	78	3#	New	1.011	0
185.5	3.5	Repeat	stimuli/objects/setsof2/123b.jpg	123	2@	Similar	1.062	0
189.0	3.5	Foil	stimuli/objects/foils/foil_1203.JPG	0	3#	New	0.896	0
192.5	3.5	First	stimuli/objects/setsof2/089a.jpg	89	3#	New	0.802	0
196.0	3.5	Foil	stimuli/objects/foils/foil_1426.JPG	0	3#	New	0.784	0
199.5	3.5	Lure	stimuli/objects/setsof2/191b.jpg	191	3#	New	1.031	5
203.0	3.5	First	stimuli/objects/setsof2/192b.jpg	192	3#	New	0.802	0
206.5	3.5	Foil	stimuli/objects/foils/foil_1400.jpg	0	3#	New	0.746	0
210.0	3.5	Repeat	stimuli/objects/setsof2/092b.jpg	92	3#	New	1.204	0
213.5	3.5	Foil	stimuli/objects/foils/foil_1094.JPG	0	3#	New	0.860	0
217.0	3.5	Repeat	stimuli/objects/setsof2/057b.jpg	57	2@	Similar	1.173	0
220.5	3.5	First	stimuli/objects/setsof2/190a.jpg	190	3#	New	0.806	0
224.0	3.5	First	stimuli/objects/setsof2/187a.jpg	187	3#	New	0.898	0
227.5	3.5	Repeat	stimuli/objects/setsof2/175b.jpg	175	1!	Old	1.168	0
231.0	3.5	Foil	stimuli/objects/foils/foil_1304.JPG	0	3#	New	1.070	0
234.5	3.5	Foil	stimuli/objects/foils/foil_1423.JPG	0	3#	New	0.777	0
238.0	3.5	Lure	stimuli/objects/setsof2/192a.jpg	192	2@	Similar	0.929	2
241.5	3.5	First	stimuli/objects/setsof2/143a.jpg	143	3#	New	0.863	0
245.0	3.5	First	stimuli/objects/setsof2/162b.jpg	162	3#	New	0.684	0
248.5	3.5	Lure	stimuli/objects/setsof2/190b.jpg	190	2@	Similar	1.209	3
252.0	3.5	Foil	stimuli/objects/foils/foil_1119.JPG	0	3#	New	1.394	0
255.5	3.5	First	stimuli/objects/setsof2/186b.jpg	186	3#	New	1.068	0
259.0	3.5	Repeat	stimuli/objects/setsof2/078a.jpg	78	1!	Old	1.026	0
262.5	3.5	Lure	stimuli/objects/setsof2/132b.jpg	132	3#	New	0.815	3
266.0	3.5	Foil	stimuli/objects/foils/foil_1441.JPG	0	3#	New	0.784	0
269.5	3.5	First	stimuli/objects/setsof2/147b.jpg	147	3#	New	1.271	0
273.0	3.5	Lure	stimuli/objects/setsof2/143b.jpg	143	2@	Similar	1.383	4
276.5	3.5	Foil	stimuli/objects/foils/foil_1250.JPG	0	3#	New	1.039	0
280.0	3.5	Lure	stimuli/objects/setsof2/162a.jpg	162	2@	Similar	1.297	5
283.5	3.5	Foil	stimuli/objects/foils/foil_1079.JPG	0	3#	New	1.224	0
287.0	3.5	First	stimuli/objects/setsof2/055b.jpg	55	5%	None	1.733	0
290.5	3.5	First	stimuli/objects/setsof2/117b.jpg	117	3#	New	0.789	0
294.0	3.5	Repeat	stimuli/objects/setsof2/187a.jpg	187	1!	Old	1.231	0
297.5	3.5	First	stimuli/objects/setsof2/135b.jpg	135	3#	New	0.735	0
301.0	3.5	Lure	stimuli/objects/setsof2/186a.jpg	186	2@	Similar	1.215	3
304.5	3.5	Foil	stimuli/objects/foils/foil_1447.JPG	0	3#	New	0.876	0
308.0	3.5	Lure	stimuli/objects/setsof2/069b.jpg	69	5%	None	1.733	2
311.5	3.5	Lure	stimuli/objects/setsof2/099b.jpg	99	5%	None	1.733	6
315.0	3.5	First	stimuli/objects/setsof2/107b.jpg	107	3#	New	1.120	0
318.5	3.5	First	stimuli/objects/setsof2/075a.jpg	75	3#	New	0.802	0
322.0	3.5	Repeat	stimuli/objects/setsof2/117b.jpg	117	1!	Old	1.080	0
325.5	3.5	Foil	stimuli/objects/foils/foil_1348.JPG	0	3#	New	1.047	0
329.0	3.5	First	stimuli/objects/setsof2/033a.jpg	33	3#	New	0.680	0
332.5	3.5	Repeat	stimuli/objects/setsof2/089a.jpg	89	1!	Old	1.306	0
336.0	3.5	Foil	stimuli/objects/foils/foil_1054.JPG	0	3#	New	0.919	0
339.5	3.5	Foil	stimuli/objects/foils/foil_1644.JPG	0	3#	New	1.033	0
343.0	3.5	Lure	stimuli/objects/setsof2/147a.jpg	147	2@	Similar	1.143	1
346.5	3.5	Repeat	stimuli/objects/setsof2/055b.jpg	55	1!	Old	1.148	0
350.0	3.5	Repeat	stimuli/objects/setsof2/107b.jpg	107	1!	Old	0.849	0
353.5	3.5	Lure	stimuli/objects/setsof2/075b.jpg	75	2@	Similar	1.384	5
357.0	3.5	Foil	stimuli/objects/foils/foil_1257.JPG	0	3#	New	0.725	0
360.5	3.5	Foil	stimuli/objects/foils/foil_1725.jpg	0	3#	New	0.961	0
364.0	3.5	Foil	stimuli/objects/foils/foil_1584.jpg	0	3#	New	1.390	0
367.5	3.5	Lure	stimuli/objects/setsof2/135a.jpg	135	2@	Similar	0.957	1
371.0	3.5	Lure	stimuli/objects/setsof2/033b.jpg	33	1!	Old	1.029	4
