onset	duration	trial_type	stimulus_name	set_num	keypress	response	rt	similarity_bin
0.0	3.5	Foil	stimuli/objects/foils/foil_1229.JPG	0	3#	New	1.240	0
3.5	3.5	Foil	stimuli/objects/foils/foil_1224.JPG	0	3#	New	1.081	0
7.0	3.5	Foil	stimuli/objects/foils/foil_1125.JPG	0	3#	New	1.213	0
10.5	3.5	Foil	stimuli/objects/foils/foil_1100.JPG	0	3#	New	0.667	0
14.0	3.5	First	stimuli/objects/setsof2/182a.jpg	182	3#	New	0.901	0
17.5	3.5	First	stimuli/objects/setsof2/048a.jpg	48	3#	New	0.727	0
21.0	3.5	Foil	stimuli/objects/foils/foil_1004.jpg	0	3#	New	1.128	0
24.5	3.5	Foil	stimuli/objects/foils/foil_1002.jpg	0	3#	New	0.807	0
28.0	3.5	First	stimuli/objects/setsof2/163a.jpg	163	3#	New	0.742	0
31.5	3.5	Foil	stimuli/objects/foils/foil_1396.JPG	0	3#	New	0.786	0
35.0	3.5	First	stimuli/objects/setsof2/037a.jpg	37	3#	New	0.593	0
38.5	3.5	Lure	stimuli/objects/setsof2/182b.jpg	182	2@	Similar	1.410	4
42.0	3.5	Foil	stimuli/objects/foils/foil_1020.jpg	0	3#	New	1.046	0
45.5	3.5	Foil	stimuli/objects/foils/foil_1405.JPG	0	3#	New	1.014	0
49.0	3.5	Foil	stimuli/objects/foils/foil_1384.JPG	0	3#	New	1.136	0
52.5	3.5	Foil	stimuli/objects/foils/foil_1397.JPG	0	3#	New	0.989	0
56.0	3.5	First	stimuli/objects/setsof2/063a.jpg	63	3#	New	0.876	0
59.5	3.5	First	stimuli/objects/setsof2/049a.jpg	49	3#	New	0.996	0
63.0	3.5	Foil	stimuli/objects/foils/foil_1387.JPG	0	3#	New	1.313	0
66.5	3.5	First	stimuli/objects/setsof2/013b.jpg	13	3#	New	0.929	0
70.0	3.5	Repeat	stimuli/objects/setsof2/037a.jpg	37	1!	Old	1.049	0
73.5	3.5	Lure	stimuli/objects/setsof2/163b.jpg	163	1!	Old	1.181	5
77.0	3.5	Foil	stimuli/objects/foils/foil_1657.JPG	0	3#	New	0.848	0
80.5	3.5	Foil	stimuli/objects/foils/foil_1467.JPG	0	3#	New	1.119	0
84.0	3.5	Foil	stimuli/objects/foils/foil_1093.JPG	0	5%	None	1.743	0
87.5	3.5	First	stimuli/objects/setsof2/130b.jpg	130	3#	New	0.641	0
91.0	3.5	First	stimuli/objects/setsof2/164b.jpg	164	3#	New	0.831	0
94.5	3.5	Foil	stimuli/objects/foils/foil_1190.JPG	0	3#	New	0.659	0
98.0	3.5	Foil	stimuli/objects/foils/foil_1416.JPG	0	3#	New	0.623	0
101.5	3.5	Lure	stimuli/objects/setsof2/013a.jpg	13	5%	None	1.741	5
105.0	3.5	First	stimuli/objects/setsof2/173b.jpg	173	3#	New	0.524	0
108.5	3.5	Foil	stimuli/objects/foils/foil_1659.JPG	0	3#	New	0.740	0
112.0	3.5	Repeat	stimuli/objects/setsof2/164b.jpg	164	2@	Similar	1.003	0
115.5	3.5	Foil	stimuli/objects/foils/foil_1698.JPG	0	3#	New	0.812	0
119.0	3.5	First	stimuli/objects/setsof2/185b.jpg	185	3#	New	0.613	0
122.5	3.5	Repeat	stimuli/objects/setsof2/130b.jpg	130	1!	Old	0.936	0
126.0	3.5	Foil	stimuli/objects/foils/foil_1341.JPG	0	3#	New	1.117	0
129.5	3.5	First	stimuli/objects/setsof2/187b.jpg	187	3#	New	0.918	0
133.0	3.5	Repeat	stimuli/objects/setsof2/173b.jpg	173	1!	Old	0.921	0
136.5	3.5	Foil	stimuli/objects/foils/foil_1172.JPG	0	3#	New	1.320	0
140.0	3.5	First	stimuli/objects/setsof2/174b.jpg	174	3#	New	0.906	0
143.5	3.5	First	stimuli/objects/setsof2/104b.jpg	104	3#	New	0.861	0
147.0	3.5	Foil	stimuli/objects/foils/foil_1297.JPG	0	3#	New	1.239	0
150.5	3.5	First	stimuli/objects/setsof2/057b.jpg	57	3#	New	1.434	0
154.0	3.5	Lure	stimuli/objects/setsof2/048b.jpg	48	2@	Similar	1.538	2
157.5	3.5	Foil	stimuli/objects/foils/foil_1354.JPG	0	3#	New	0.923	0
161.0	3.5	Foil	stimuli/objects/foils/foil_1110.JPG	0	3#	New	0.889	0
164.5	3.5	Foil	stimuli/objects/foils/foil_1402.JPG	0	3#	New	1.348	0
168.0	3.5	Foil	stimuli/objects/foils/foil_1564.JPG	0	3#	New	1.320	0
171.5	3.5	First	stimuli/objects/setsof2/005a.jpg	5	3#	New	1.426	0
175.0	3.5	First	stimuli/objects/setsof2/056b.jpg	56	3#	New	1.360	0
178.5	3.5	Foil	stimuli/objects/foils/foil_1335.JPG	0	3#	New	1.184	0
182.0	3.5	First	stimuli/objects/setsof2/152b.jpg	152	3#	New	1.127	0
185.5	3.5	Repeat	stimuli/objects/setsof2/049a.jpg	49	1!	Old	0.828	0
189.0	3.5	Repeat	stimuli/objects/setsof2/185b.jpg	185	1!	Old	0.922	0
192.5	3.5	First	stimuli/objects/setsof2/009a.jpg	9	3#	New	0.775	0
196.0	3.5	Repeat	stimuli/objects/setsof2/063a.jpg	63	1!	Old	1.001	0
199.5	3.5	Foil	stimuli/objects/foils/foil_1670.JPG	0	3#	New	0.941	0
203.0	3.5	Foil	stimuli/objects/foils/foil_1498.JPG	0	3#	New	1.118	0
206.5	3.5	First	stimuli/objects/setsof2/125a.jpg	125	3#	New	1.079	0
210.0	3.5	Foil	stimuli/objects/foils/foil_1602.JPG	0	3#	New	0.727	0
213.5	3.5	Repeat	stimuli/objects/setsof2/056b.jpg	56	5%	None	1.734	0
217.0	3.5	First	stimuli/objects/setsof2/100b.jpg	100	3#	New	1.069	0
220.5	3.5	Foil	stimuli/objects/foils/foil_1648.JPG	0	3#	New	1.014	0
224.0	3.5	First	stimuli/objects/setsof2/099b.jpg	99	3#	New	1.144	0
227.5	3.5	Foil	stimuli/objects/foils/foil_1551.jpg	0	3#	New	0.794	0
231.0	3.5	Lure	stimuli/objects/setsof2/057a.jpg	57	1!	Old	1.474	4
234.5	3.5	First	stimuli/objects/setsof2/103a.jpg	103	3#	New	1.224	0
238.0	3.5	Repeat	stimuli/objects/setsof2/125a.jpg	125	1!	Old	1.093	0
241.5	3.5	Lure	stimuli/objects/setsof2/005b.jpg	5	5%	None	1.733	3
245.0	3.5	First	stimuli/objects/setsof2/122b.jpg	122	3#	New	1.048	0
248.5	3.5	Lure	stimuli/objects/setsof2/187a.jpg	187	2@	Similar	1.215	1
252.0	3.5	Foil	stimuli/objects/foils/foil_1208.JPG	0	3#	New	0.733	0
255.5	3.5	First	stimuli/objects/setsof2/120b.jpg	120	3#	New	1.036	0
259.0	3.5	Lure	stimuli/objects/setsof2/099a.jpg	99	2@	Similar	1.078	6
262.5	3.5	Foil	stimuli/objects/foils/foil_1385.JPG	0	3#	New	0.910	0
266.0	3.5	First	stimuli/objects/setsof2/144a.jpg	144	3#	New	0.670	0
269.5	3.5	Foil	stimuli/objects/foils/foil_1654.JPG	0	3#	New	1.329	0
273.0	3.5	Repeat	stimuli/objects/setsof2/174b.jpg	174	5%	None	1.731	0
276.5	3.5	First	stimuli/objects/setsof2/060a.jpg	60	3#	New	0.943	0
280.0	3.5	Repeat	stimuli/objects/setsof2/104b.jpg	104	1!	Old	1.168	0
283.5	3.5	Repeat	stimuli/objects/setsof2/100b.jpg	100	1!	Old	0.907	0
287.0	3.5	First	stimuli/objects/setsof2/092a.jpg	92	3#	New	0.799	0
290.5	3.5	Repeat	stimuli/objects/setsof2/120b.jpg	120	1!	Old	0.889	0
294.0	3.5	Foil	stimuli/objects/foils/foil_1512.JPG	0	3#	New	1.131	0
297.5	3.5	First	stimuli/objects/setsof2/141a.jpg	141	3#	New	0.722	0
301.0	3.5	Foil	stimuli/objects/foils/foil_1167.JPG	0	3#	New	0.608	0
304.5	3.5	Lure	stimuli/objects/setsof2/103b.jpg	103	3#	New	1.403	1
308.0	3.5	Lure	stimuli/objects/setsof2/144b.jpg	144	1!	Old	1.278	3
311.5	3.5	Lure	stimuli/objects/setsof2/060b.jpg	60	5%	None	1.728	3
315.0	3.5	Repeat	stimuli/objects/setsof2/122b.jpg	122	5%	None	1.728	0
318.5	3.5	First	stimuli/objects/setsof2/192a.jpg	192	3#	New	0.915	0
322.0	3.5	Lure	stimuli/objects/setsof2/152a.jpg	152	3#	New	1.060	1
325.5	3.5	Foil	stimuli/objects/foils/foil_1176.JPG	0	3#	New	0.994	0
329.0	3.5	First	stimuli/objects/setsof2/027a.jpg	27	5%	None	1.727	0
332.5	3.5	Lure	stimuli/objects/setsof2/009b.jpg	9	2@	Similar	1.200	4
336.0	3.5	Foil	stimuli/objects/foils/foil_1130.JPG	0	3#	New	0.676	0
339.5	3.5	Foil	stimuli/objects/foils/foil_1411.JPG	0	3#	New	1.312	0
343.0	3.5	Repeat	stimuli/objects/setsof2/192a.jpg	192	2@	Similar	1.263	0
346.5	3.5	First	stimuli/objects/setsof2/167b.jpg	167	3#	New	0.729	0
350.0	3.5	Foil	stimuli/objects/foils/foil_1558.JPG	0	3#	New	1.664	0
353.5	3.5	Repeat	stimuli/objects/setsof2/167b.jpg	167	1!	Old	0.900	0
357.0	3.5	Foil	stimuli/objects/foils/foil_1493.JPG	0	3#	New	0.798	0
360.5	3.5	Lure	stimuli/objects/setsof2/092b.jpg	92	3#	New	1.388	6
364.0	3.5	Lure	stimuli/objects/setsof2/027b.jpg	27	1!	Old	0.776	6
367.5	3.5	Lure	stimuli/objects/setsof2/141b.jpg	141	2@	Similar	1.299	3
371.0	3.5	Foil	stimuli/objects/foils/foil_1062.JPG	0	5%	None	1.725	0
