onset	duration	trial_type	stimulus_name	set_num	keypress	response	rt	similarity_bin
0.0	3.5	Foil	stimuli/objects/foils/foil_1246.JPG	0	3#	New	0.940	0
3.5	3.5	First	stimuli/objects/setsof2/075a.jpg	75	3#	New	0.877	0
7.0	3.5	Foil	stimuli/objects/foils/foil_1051.JPG	0	3#	New	0.932	0
10.5	3.5	Foil	stimuli/objects/foils/foil_1418.JPG	0	3#	New	1.160	0
14.0	3.5	Foil	stimuli/objects/foils/foil_1169.JPG	0	3#	New	1.179	0
17.5	3.5	Foil	stimuli/objects/foils/foil_1001.jpg	0	3#	New	1.011	0
21.0	3.5	First	stimuli/objects/setsof2/014a.jpg	14	3#	New	1.088	0
24.5	3.5	First	stimuli/objects/setsof2/091a.jpg	91	3#	New	1.128	0
28.0	3.5	Foil	stimuli/objects/foils/foil_1111.JPG	0	3#	New	1.272	0
31.5	3.5	Foil	stimuli/objects/foils/foil_1013.jpg	0	3#	New	1.231	0
35.0	3.5	First	stimuli/objects/setsof2/076a.jpg	76	3#	New	1.262	0
38.5	3.5	Lure	stimuli/objects/setsof2/075b.jpg	75	1!	Old	1.695	5
42.0	3.5	Foil	stimuli/objects/foils/foil_1487.JPG	0	3#	New	1.136	0
45.5	3.5	First	stimuli/objects/setsof2/062a.jpg	62	3#	New	1.191	0
49.0	3.5	Foil	stimuli/objects/foils/foil_1545.JPG	0	3#	New	1.396	0
52.5	3.5	Foil	stimuli/objects/foils/foil_1343.JPG	0	3#	New	1.265	0
56.0	3.5	First	stimuli/objects/setsof2/178b.jpg	178	3#	New	1.198	0
59.5	3.5	Foil	stimuli/objects/foils/foil_1156.JPG	0	3#	New	1.362	0
63.0	3.5	Foil	stimuli/objects/foils/foil_1014.jpg	0	3#	New	1.707	0
66.5	3.5	Foil	stimuli/objects/foils/foil_1064.jpg	0	3#	New	1.337	0
70.0	3.5	First	stimuli/objects/setsof2/090a.jpg	90	5%	None	1.742	0
73.5	3.5	Repeat	stimuli/objects/setsof2/076a.jpg	76	1!	Old	1.544	0
77.0	3.5	First	stimuli/objects/setsof2/102b.jpg	102	3#	New	1.456	0
80.5	3.5	Foil	stimuli/objects/foils/foil_1253.JPG	0	3#	New	1.417	0
84.0	3.5	Foil	stimuli/objects/foils/foil_1221.JPG	0	3#	New	1.484	0
87.5	3.5	First	stimuli/objects/setsof2/019b.jpg	19	5%	None	1.741	0
91.0	3.5	Foil	stimuli/objects/foils/foil_1117.JPG	0	5%	None	1.741	0
94.5	3.5	Repeat	stimuli/objects/setsof2/062a.jpg	62	5%	None	1.741	0
98.0	3.5	First	stimuli/objects/setsof2/043a.jpg	43	3#	New	1.625	0
101.5	3.5	Foil	stimuli/objects/foils/foil_1312.JPG	0	3#	New	1.357	0
105.0	3.5	Foil	stimuli/objects/foils/foil_1455.JPG	0	5%	None	1.739	0
108.5	3.5	First	stimuli/objects/setsof2/121b.jpg	121	3#	New	1.341	0
112.0	3.5	Lure	stimuli/objects/setsof2/102a.jpg	102	5%	None	1.740	3
115.5	3.5	Foil	stimuli/objects/foils/foil_1627.jpg	0	3#	New	1.417	0
119.0	3.5	First	stimuli/objects/setsof2/042b.jpg	42	3#	New	0.865	0
122.5	3.5	Lure	stimuli/objects/setsof2/019a.jpg	19	2@	Similar	1.634	3
126.0	3.5	Foil	stimuli/objects/foils/foil_1366.JPG	0	5%	None	1.738	0
129.5	3.5	Foil	stimuli/objects/foils/foil_1722.JPG	0	3#	New	1.029	0
133.0	3.5	Repeat	stimuli/objects/setsof2/043a.jpg	43	1!	Old	1.722	0
136.5	3.5	First	stimuli/objects/setsof2/151a.jpg	151	5%	None	1.738	0
140.0	3.5	First	stimuli/objects/setsof2/157b.jpg	157	3#	New	1.141	0
143.5	3.5	Repeat	stimuli/objects/setsof2/121b.jpg	121	1!	Old	1.234	0
147.0	3.5	Foil	stimuli/objects/foils/foil_1137.JPG	0	3#	New	1.185	0
150.5	3.5	Foil	stimuli/objects/foils/foil_1058.JPG	0	3#	New	1.028	0
154.0	3.5	First	stimuli/objects/setsof2/083a.jpg	83	3#	New	1.057	0
157.5	3.5	Foil	stimuli/objects/foils/foil_1133.JPG	0	3#	New	1.083	0
161.0	3.5	First	stimuli/objects/setsof2/189b.jpg	189	3#	New	0.982	0
164.5	3.5	Repeat	stimuli/objects/setsof2/091a.jpg	91	2@	Similar	1.326	0
168.0	3.5	Foil	stimuli/objects/foils/foil_1128.JPG	0	3#	New	0.948	0
171.5	3.5	First	stimuli/objects/setsof2/111a.jpg	111	3#	New	0.988	0
175.0	3.5	Lure	stimuli/objects/setsof2/014b.jpg	14	5%	None	1.736	2
178.5	3.5	Foil	stimuli/objects/foils/foil_1076.JPG	0	5%	None	1.736	0
182.0	3.5	Foil	stimuli/objects/foils/foil_1501.JPG	0	3#	New	1.248	0
185.5	3.5	Foil	stimuli/objects/foils/foil_1042.JPG	0	3#	New	1.157	0
189.0	3.5	Lure	stimuli/objects/setsof2/042a.jpg	42	5%	None	1.734	3
192.5	3.5	First	stimuli/objects/setsof2/159a.jpg	159	3#	New	1.358	0
196.0	3.5	First	stimuli/objects/setsof2/184b.jpg	184	3#	New	1.322	0
199.5	3.5	Repeat	stimuli/objects/setsof2/178b.jpg	178	2@	Similar	1.337	0
203.0	3.5	Repeat	stimuli/objects/setsof2/151a.jpg	151	1!	Old	1.143	0
206.5	3.5	Repeat	stimuli/objects/setsof2/090a.jpg	90	1!	Old	0.992	0
210.0	3.5	First	stimuli/objects/setsof2/051b.jpg	51	3#	New	1.386	0
213.5	3.5	First	stimuli/objects/setsof2/134b.jpg	134	3#	New	1.088	0
217.0	3.5	Foil	stimuli/objects/foils/foil_1537.JPG	0	3#	New	1.615	0
220.5	3.5	Foil	stimuli/objects/foils/foil_1410.JPG	0	3#	New	1.135	0
224.0	3.5	First	stimuli/objects/setsof2/033a.jpg	33	3#	New	0.870	0
227.5	3.5	Foil	stimuli/objects/foils/foil_1491.jpg	0	3#	New	1.270	0
231.0	3.5	Foil	stimuli/objects/foils/foil_1369.JPG	0	3#	New	1.212	0
234.5	3.5	First	stimuli/objects/setsof2/143b.jpg	143	3#	New	1.103	0
238.0	3.5	Repeat	stimuli/objects/setsof2/051b.jpg	51	1!	Old	1.296	0
241.5	3.5	Repeat	stimuli/objects/setsof2/111a.jpg	111	1!	Old	0.950	0
245.0	3.5	Lure	stimuli/objects/setsof2/189a.jpg	189	2@	Similar	1.277	3
248.5	3.5	First	stimuli/objects/setsof2/108a.jpg	108	2@	Similar	1.646	0
252.0	3.5	Foil	stimuli/objects/foils/foil_1394.JPG	0	3#	New	1.216	0
255.5	3.5	First	stimuli/objects/setsof2/022b.jpg	22	3#	New	1.163	0
259.0	3.5	Lure	stimuli/objects/setsof2/134a.jpg	134	5%	None	1.730	1
262.5	3.5	Foil	stimuli/objects/foils/foil_1289.JPG	0	3#	New	1.235	0
266.0	3.5	First	stimuli/objects/setsof2/095a.jpg	95	3#	New	1.390	0
269.5	3.5	Repeat	stimuli/objects/setsof2/143b.jpg	143	1!	Old	1.202	0
273.0	3.5	Lure	stimuli/objects/setsof2/033b.jpg	33	1!	Old	1.066	4
276.5	3.5	First	stimuli/objects/setsof2/088b.jpg	88	3#	New	1.053	0
280.0	3.5	Foil	stimuli/objects/foils/foil_1612.JPG	0	3#	New	1.400	0
283.5	3.5	Foil	stimuli/objects/foils/foil_1318.JPG	0	3#	New	1.728	0
287.0	3.5	First	stimuli/objects/setsof2/179b.jpg	179	3#	New	0.955	0
290.5	3.5	Lure	stimuli/objects/setsof2/083b.jpg	83	1!	Old	1.456	2
294.0	3.5	Foil	stimuli/objects/foils/foil_1480.JPG	0	3#	New	1.507	0
297.5	3.5	First	stimuli/objects/setsof2/153a.jpg	153	3#	New	1.404	0
301.0	3.5	Lure	stimuli/objects/setsof2/157a.jpg	157	2@	Similar	1.373	3
304.5	3.5	Foil	stimuli/objects/foils/foil_1231.JPG	0	3#	New	1.255	0
308.0	3.5	Lure	stimuli/objects/setsof2/095b.jpg	95	1!	Old	1.294	6
311.5	3.5	First	stimuli/objects/setsof2/073b.jpg	73	1!	Old	1.529	0
315.0	3.5	Lure	stimuli/objects/setsof2/088a.jpg	88	2@	Similar	1.449	3
318.5	3.5	First	stimuli/objects/setsof2/045a.jpg	45	3#	New	1.243	0
322.0	3.5	Repeat	stimuli/objects/setsof2/108a.jpg	108	1!	Old	1.393	0
325.5	3.5	Lure	stimuli/objects/setsof2/022a.jpg	22	1!	Old	1.673	5
329.0	3.5	First	stimuli/objects/setsof2/172b.jpg	172	3#	New	1.456	0
332.5	3.5	Lure	stimuli/objects/setsof2/184a.jpg	184	5%	None	1.726	5
336.0	3.5	Foil	stimuli/objects/foils/foil_1212.JPG	0	5%	None	1.726	0
339.5	3.5	Foil	stimuli/objects/foils/foil_1250.JPG	0	3#	New	1.441	0
343.0	3.5	Repeat	stimuli/objects/setsof2/159a.jpg	159	1!	Old	1.554	0
346.5	3.5	Foil	stimuli/objects/foils/foil_1217.JPG	0	1!	Old	0.872	0
350.0	3.5	Repeat	stimuli/objects/setsof2/073b.jpg	73	1!	Old	1.130	0
353.5	3.5	Foil	stimuli/objects/foils/foil_1371.JPG	0	3#	New	1.048	0
357.0	3.5	Lure	stimuli/objects/setsof2/045b.jpg	45	1!	Old	1.558	3
360.5	3.5	Repeat	stimuli/objects/setsof2/179b.jpg	179	1!	Old	1.028	0
364.0	3.5	Foil	stimuli/objects/foils/foil_1361.JPG	0	3#	New	1.109	0
367.5	3.5	Lure	stimuli/objects/setsof2/172a.jpg	172	2@	Similar	1.434	3
371.0	3.5	Repeat	stimuli/objects/setsof2/153a.jpg	153	1!	Old	1.058	0
