onset	duration	trial_type	stimulus_name	set_num	keypress	response	rt	similarity_bin
0.0	3.5	Foil	stimuli/objects/foils/foil_1569.JPG	0	3#	New	0.672	0
3.5	3.5	First	stimuli/objects/setsof2/071b.jpg	71	3#	New	1.072	0
7.0	3.5	Foil	stimuli/objects/foils/foil_1643.JPG	0	3#	New	0.847	0
10.5	3.5	Foil	stimuli/objects/foils/foil_1301.JPG	0	3#	New	0.984	0
14.0	3.5	Foil	stimuli/objects/foils/foil_1228.JPG	0	3#	New	0.946	0
17.5	3.5	Foil	stimuli/objects/foils/foil_1401.JPG	0	3#	New	1.085	0
21.0	3.5	First	stimuli/objects/setsof2/031a.jpg	31	3#	New	0.628	0
24.5	3.5	First	stimuli/objects/setsof2/076a.jpg	76	3#	New	0.585	0
28.0	3.5	Foil	stimuli/objects/foils/foil_1680.JPG	0	3#	New	0.846	0
31.5	3.5	Foil	stimuli/objects/foils/foil_1363.JPG	0	3#	New	1.001	0
35.0	3.5	First	stimuli/objects/setsof2/100b.jpg	100	3#	New	0.956	0
38.5	3.5	Lure	stimuli/objects/setsof2/071a.jpg	71	3#	New	0.847	5
42.0	3.5	Foil	stimuli/objects/foils/foil_1252.JPG	0	3#	New	0.743	0
45.5	3.5	First	stimuli/objects/setsof2/027a.jpg	27	3#	New	0.575	0
49.0	3.5	Lure	stimuli/objects/setsof2/031b.jpg	31	1!	Old	1.152	6
52.5	3.5	Foil	stimuli/objects/foils/foil_1307.JPG	0	3#	New	0.742	0
56.0	3.5	First	stimuli/objects/setsof2/084a.jpg	84	3#	New	0.812	0
59.5	3.5	Lure	stimuli/objects/setsof2/076b.jpg	76	2@	Similar	1.038	1
63.0	3.5	Foil	stimuli/objects/foils/foil_1592.JPG	0	3#	New	0.770	0
66.5	3.5	First	stimuli/objects/setsof2/146b.jpg	146	3#	New	0.841	0
70.0	3.5	Foil	stimuli/objects/foils/foil_1573.JPG	0	5%	None	1.745	0
73.5	3.5	Foil	stimuli/objects/foils/foil_1321.JPG	0	3#	New	0.816	0
77.0	3.5	Repeat	stimuli/objects/setsof2/100b.jpg	100	1!	Old	0.991	0
80.5	3.5	First	stimuli/objects/setsof2/172b.jpg	172	3#	New	0.821	0
84.0	3.5	Foil	stimuli/objects/foils/foil_1445.JPG	0	3#	New	0.877	0
87.5	3.5	First	stimuli/objects/setsof2/001b.jpg	1	3#	New	0.809	0
91.0	3.5	Foil	stimuli/objects/foils/foil_1698.JPG	0	3#	New	1.013	0
94.5	3.5	Repeat	stimuli/objects/setsof2/027a.jpg	27	1!	Old	0.967	0
98.0	3.5	Foil	stimuli/objects/foils/foil_1030.JPG	0	3#	New	0.930	0
101.5	3.5	Foil	stimuli/objects/foils/foil_1291.JPG	0	3#	New	0.851	0
105.0	3.5	First	stimuli/objects/setsof2/081a.jpg	81	3#	New	0.864	0
108.5	3.5	First	stimuli/objects/setsof2/118a.jpg	118	3#	New	1.076	0
112.0	3.5	Lure	stimuli/objects/setsof2/172a.jpg	172	5%	None	1.742	3
115.5	3.5	Foil	stimuli/objects/foils/foil_1470.JPG	0	3#	New	0.908	0
119.0	3.5	First	stimuli/objects/setsof2/177b.jpg	177	3#	New	0.758	0
122.5	3.5	Foil	stimuli/objects/foils/foil_1722.JPG	0	3#	New	0.801	0
126.0	3.5	Foil	stimuli/objects/foils/foil_1366.JPG	0	3#	New	0.902	0
129.5	3.5	Foil	stimuli/objects/foils/foil_1174.JPG	0	3#	New	0.821	0
133.0	3.5	Foil	stimuli/objects/foils/foil_1333.JPG	0	3#	New	1.725	0
136.5	3.5	Foil	stimuli/objects/foils/foil_1619.JPG	0	3#	New	0.908	0
140.0	3.5	First	stimuli/objects/setsof2/159b.jpg	159	3#	New	0.672	0
143.5	3.5	First	stimuli/objects/setsof2/169a.jpg	169	3#	New	0.819	0
147.0	3.5	Foil	stimuli/objects/foils/foil_1064.jpg	0	3#	New	0.956	0
150.5	3.5	First	stimuli/objects/setsof2/131a.jpg	131	3#	New	1.175	0
154.0	3.5	Foil	stimuli/objects/foils/foil_1113.JPG	0	3#	New	0.908	0
157.5	3.5	Foil	stimuli/objects/foils/foil_1169.JPG	0	3#	New	0.940	0
161.0	3.5	First	stimuli/objects/setsof2/113a.jpg	113	3#	New	0.968	0
164.5	3.5	Repeat	stimuli/objects/setsof2/159b.jpg	159	1!	Old	0.957	0
168.0	3.5	Foil	stimuli/objects/foils/foil_1163.JPG	0	3#	New	0.816	0
171.5	3.5	First	stimuli/objects/setsof2/088b.jpg	88	3#	New	1.136	0
175.0	3.5	Foil	stimuli/objects/foils/foil_1109.JPG	0	2@	Similar	1.110	0
178.5	3.5	Foil	stimuli/objects/foils/foil_1097.JPG	0	3#	New	1.116	0
182.0	3.5	First	stimuli/objects/setsof2/075a.jpg	75	5%	None	1.738	0
185.5	3.5	Lure	stimuli/objects/setsof2/131b.jpg	131	2@	Similar	1.074	3
189.0	3.5	Foil	stimuli/objects/foils/foil_1697.jpg	0	3#	New	0.952	0
192.5	3.5	First	stimuli/objects/setsof2/056b.jpg	56	3#	New	1.050	0
196.0	3.5	Foil	stimuli/objects/foils/foil_1313.JPG	0	3#	New	0.757	0
199.5	3.5	Repeat	stimuli/objects/setsof2/084a.jpg	84	1!	Old	0.874	0
203.0	3.5	Foil	stimuli/objects/foils/foil_1545.JPG	0	3#	New	1.049	0
206.5	3.5	Repeat	stimuli/objects/setsof2/146b.jpg	146	1!	Old	1.125	0
210.0	3.5	First	stimuli/objects/setsof2/183a.jpg	183	3#	New	0.959	0
213.5	3.5	Foil	stimuli/objects/foils/foil_1246.JPG	0	3#	New	1.312	0
217.0	3.5	First	stimuli/objects/setsof2/162b.jpg	162	3#	New	1.124	0
220.5	3.5	Foil	stimuli/objects/foils/foil_1211.JPG	0	3#	New	0.980	0
224.0	3.5	First	stimuli/objects/setsof2/137a.jpg	137	3#	New	1.204	0
227.5	3.5	Foil	stimuli/objects/foils/foil_1017.jpg	0	3#	New	0.847	0
231.0	3.5	Repeat	stimuli/objects/setsof2/113a.jpg	113	1!	Old	0.890	0
234.5	3.5	First	stimuli/objects/setsof2/164b.jpg	164	3#	New	0.784	0
238.0	3.5	Repeat	stimuli/objects/setsof2/001b.jpg	1	1!	Old	0.781	0
241.5	3.5	Repeat	stimuli/objects/setsof2/088b.jpg	88	1!	Old	0.905	0
245.0	3.5	First	stimuli/objects/setsof2/147b.jpg	147	3#	New	0.886	0
248.5	3.5	Repeat	stimuli/objects/setsof2/118a.jpg	118	1!	Old	0.924	0
252.0	3.5	Foil	stimuli/objects/foils/foil_1556.JPG	0	3#	New	1.359	0
255.5	3.5	First	stimuli/objects/setsof2/120a.jpg	120	3#	New	1.222	0
259.0	3.5	Lure	stimuli/objects/setsof2/177a.jpg	177	5%	None	1.733	3
262.5	3.5	Lure	stimuli/objects/setsof2/081b.jpg	81	2@	Similar	1.193	1
266.0	3.5	Lure	stimuli/objects/setsof2/056a.jpg	56	1!	Old	1.025	6
269.5	3.5	Lure	stimuli/objects/setsof2/164a.jpg	164	1!	Old	1.129	4
273.0	3.5	Lure	stimuli/objects/setsof2/183b.jpg	183	1!	Old	0.949	6
276.5	3.5	First	stimuli/objects/setsof2/085b.jpg	85	3#	New	1.067	0
280.0	3.5	First	stimuli/objects/setsof2/096a.jpg	96	3#	New	1.120	0
283.5	3.5	Repeat	stimuli/objects/setsof2/169a.jpg	169	1!	Old	1.014	0
287.0	3.5	First	stimuli/objects/setsof2/048b.jpg	48	3#	New	1.066	0
290.5	3.5	Lure	stimuli/objects/setsof2/120b.jpg	120	1!	Old	0.868	6
294.0	3.5	Lure	stimuli/objects/setsof2/162a.jpg	162	1!	Old	1.089	5
297.5	3.5	Repeat	stimuli/objects/setsof2/137a.jpg	137	1!	Old	0.909	0
301.0	3.5	Lure	stimuli/objects/setsof2/085a.jpg	85	1!	Old	0.942	3
304.5	3.5	First	stimuli/objects/setsof2/019b.jpg	19	3#	New	1.165	0
308.0	3.5	First	stimuli/objects/setsof2/153b.jpg	153	2@	Similar	1.542	0
311.5	3.5	Foil	stimuli/objects/foils/foil_1437.JPG	0	3#	New	1.528	0
315.0	3.5	Repeat	stimuli/objects/setsof2/096a.jpg	96	1!	Old	0.956	0
318.5	3.5	First	stimuli/objects/setsof2/188a.jpg	188	3#	New	1.620	0
322.0	3.5	Repeat	stimuli/objects/setsof2/147b.jpg	147	1!	Old	1.024	0
325.5	3.5	Foil	stimuli/objects/foils/foil_1410.JPG	0	3#	New	0.929	0
329.0	3.5	Repeat	stimuli/objects/setsof2/075a.jpg	75	1!	Old	0.890	0
332.5	3.5	Lure	stimuli/objects/setsof2/019a.jpg	19	2@	Similar	1.010	3
336.0	3.5	Foil	stimuli/objects/foils/foil_1387.JPG	0	3#	New	1.262	0
339.5	3.5	Foil	stimuli/objects/foils/foil_1281.JPG	0	3#	New	0.865	0
343.0	3.5	Lure	stimuli/objects/setsof2/153a.jpg	153	5%	None	1.728	4
346.5	3.5	Foil	stimuli/objects/foils/foil_1616.JPG	0	3#	New	1.418	0
350.0	3.5	First	stimuli/objects/setsof2/090b.jpg	90	3#	New	1.013	0
353.5	3.5	Foil	stimuli/objects/foils/foil_1361.JPG	0	3#	New	1.065	0
357.0	3.5	Repeat	stimuli/objects/setsof2/048b.jpg	48	1!	Old	1.458	0
360.5	3.5	Foil	stimuli/objects/foils/foil_1173.JPG	0	3#	New	0.874	0
364.0	3.5	Lure	stimuli/objects/setsof2/090a.jpg	90	2@	Similar	1.566	3
367.5	3.5	Foil	stimuli/objects/foils/foil_1367.JPG	0	1!	Old	1.652	0
371.0	3.5	Repeat	stimuli/objects/setsof2/188a.jpg	188	1!	Old	0.892	0
