onset	duration	trial_type	stimulus_name	set_num	keypress	response	rt	similarity_bin
0.0	3.5	Foil	stimuli/objects/foils/foil_1043.JP	0	5	None	1.749	0
3.5	3.5	Foil	stimuli/objects/foils/foil_1501.JP	0	3	New	1.281	0
7.0	3.5	First	stimuli/objects/setsof2/013a.jp	13	3	New	1.031	0
10.5	3.5	Foil	stimuli/objects/foils/foil_1116.JP	0	3	New	1.113	0
14.0	3.5	First	stimuli/objects/setsof2/029a.jp	29	3	New	0.819	0
17.5	3.5	Foil	stimuli/objects/foils/foil_1346.JP	0	3	New	1.212	0
21.0	3.5	Foil	stimuli/objects/foils/foil_1321.JP	0	3	New	1.005	0
24.5	3.5	Foil	stimuli/objects/foils/foil_1473.JP	0	3	New	1.185	0
28.0	3.5	Foil	stimuli/objects/foils/foil_1686.JP	0	5	None	1.748	0
31.5	3.5	Foil	stimuli/objects/foils/foil_1143.JP	0	5	None	1.748	0
35.0	3.5	First	stimuli/objects/setsof2/127a.jp	127	3	New	1.102	0
38.5	3.5	Repeat	stimuli/objects/setsof2/013a.jp	13	1	Old	1.085	0
42.0	3.5	First	stimuli/objects/setsof2/159a.jp	159	3	New	0.653	0
45.5	3.5	First	stimuli/objects/setsof2/106a.jp	106	3	New	0.844	0
49.0	3.5	Foil	stimuli/objects/foils/foil_1367.JP	0	3	New	1.078	0
52.5	3.5	Foil	stimuli/objects/foils/foil_1383.JP	0	3	New	0.746	0
56.0	3.5	First	stimuli/objects/setsof2/053a.jp	53	3	New	0.820	0
59.5	3.5	Foil	stimuli/objects/foils/foil_1539.JP	0	3	New	1.305	0
63.0	3.5	Foil	stimuli/objects/foils/foil_1530.JP	0	5	None	1.745	0
66.5	3.5	Foil	stimuli/objects/foils/foil_1306.JP	0	3	New	0.932	0
70.0	3.5	First	stimuli/objects/setsof2/050a.jp	50	3	New	0.858	0
73.5	3.5	Foil	stimuli/objects/foils/foil_1574.JP	0	3	New	0.654	0
77.0	3.5	Foil	stimuli/objects/foils/foil_1045.JP	0	3	New	0.732	0
80.5	3.5	First	stimuli/objects/setsof2/104a.jp	104	3	New	0.930	0
84.0	3.5	Lure	stimuli/objects/setsof2/106b.jp	106	1	Old	1.048	5
87.5	3.5	Foil	stimuli/objects/foils/foil_1616.JP	0	5	None	1.744	0
91.0	3.5	First	stimuli/objects/setsof2/105b.jp	105	5	None	1.743	0
94.5	3.5	Foil	stimuli/objects/foils/foil_1704.JP	0	5	None	1.743	0
98.0	3.5	Lure	stimuli/objects/setsof2/053b.jp	53	2	Similar	1.322	4
101.5	3.5	Foil	stimuli/objects/foils/foil_1010.jp	0	3	New	0.894	0
105.0	3.5	First	stimuli/objects/setsof2/016b.jp	16	3	New	0.889	0
108.5	3.5	First	stimuli/objects/setsof2/067b.jp	67	3	New	0.840	0
112.0	3.5	Foil	stimuli/objects/foils/foil_1342.JP	0	3	New	0.978	0
115.5	3.5	Foil	stimuli/objects/foils/foil_1157.JP	0	3	New	1.153	0
119.0	3.5	First	stimuli/objects/setsof2/101b.jp	101	3	New	1.305	0
122.5	3.5	Lure	stimuli/objects/setsof2/105a.jp	105	2	Similar	1.193	5
126.0	3.5	Foil	stimuli/objects/foils/foil_1113.JP	0	3	New	1.077	0
129.5	3.5	First	stimuli/objects/setsof2/038b.jp	38	3	New	1.078	0
133.0	3.5	Foil	stimuli/objects/foils/foil_1380.JP	0	3	New	1.415	0
136.5	3.5	Foil	stimuli/objects/foils/foil_1284.JP	0	3	New	0.922	0
140.0	3.5	First	stimuli/objects/setsof2/126b.jp	126	3	New	0.602	0
143.5	3.5	Foil	stimuli/objects/foils/foil_1219.JP	0	3	New	1.587	0
147.0	3.5	Foil	stimuli/objects/foils/foil_1418.JP	0	3	New	1.026	0
150.5	3.5	First	stimuli/objects/setsof2/115b.jp	115	3	New	1.024	0
154.0	3.5	Lure	stimuli/objects/setsof2/029b.jp	29	2	Similar	1.177	1
157.5	3.5	Foil	stimuli/objects/foils/foil_1059.JP	0	5	None	1.740	0
161.0	3.5	Repeat	stimuli/objects/setsof2/016b.jp	16	1	Old	1.033	0
164.5	3.5	First	stimuli/objects/setsof2/087a.jp	87	3	New	1.221	0
168.0	3.5	Lure	stimuli/objects/setsof2/127b.jp	127	2	Similar	1.371	4
171.5	3.5	First	stimuli/objects/setsof2/035b.jp	35	3	New	1.066	0
175.0	3.5	Foil	stimuli/objects/foils/foil_1591.JP	0	3	New	0.984	0
178.5	3.5	Foil	stimuli/objects/foils/foil_1241.JP	0	3	New	1.182	0
182.0	3.5	Lure	stimuli/objects/setsof2/159b.jp	159	3	New	1.089	5
185.5	3.5	First	stimuli/objects/setsof2/057b.jp	57	3	New	0.821	0
189.0	3.5	Lure	stimuli/objects/setsof2/101a.jp	101	3	New	0.595	2
192.5	3.5	First	stimuli/objects/setsof2/043b.jp	43	3	New	0.750	0
196.0	3.5	Foil	stimuli/objects/foils/foil_1057.JP	0	3	New	1.263	0
199.5	3.5	Repeat	stimuli/objects/setsof2/038b.jp	38	1	Old	1.324	0
203.0	3.5	First	stimuli/objects/setsof2/097b.jp	97	3	New	1.417	0
206.5	3.5	Lure	stimuli/objects/setsof2/087b.jp	87	2	Similar	1.128	1
210.0	3.5	Lure	stimuli/objects/setsof2/126a.jp	126	5	None	1.737	5
213.5	3.5	First	stimuli/objects/setsof2/172a.jp	172	3	New	1.048	0
217.0	3.5	Lure	stimuli/objects/setsof2/104b.jp	104	3	New	1.531	3
220.5	3.5	Foil	stimuli/objects/foils/foil_1124.JP	0	3	New	0.873	0
224.0	3.5	First	stimuli/objects/setsof2/030b.jp	30	3	New	0.861	0
227.5	3.5	Foil	stimuli/objects/foils/foil_1447.JP	0	3	New	0.985	0
231.0	3.5	Foil	stimuli/objects/foils/foil_1629.JP	0	3	New	1.301	0
234.5	3.5	First	stimuli/objects/setsof2/162b.jp	162	3	New	1.056	0
238.0	3.5	Repeat	stimuli/objects/setsof2/097b.jp	97	5	None	1.735	0
241.5	3.5	Lure	stimuli/objects/setsof2/050b.jp	50	1	Old	1.049	6
245.0	3.5	First	stimuli/objects/setsof2/073a.jp	73	3	New	0.933	0
248.5	3.5	Repeat	stimuli/objects/setsof2/067b.jp	67	2	Similar	1.274	0
252.0	3.5	Lure	stimuli/objects/setsof2/057a.jp	57	1	Old	0.862	4
255.5	3.5	Repeat	stimuli/objects/setsof2/035b.jp	35	1	Old	1.058	0
259.0	3.5	First	stimuli/objects/setsof2/149b.jp	149	3	New	0.824	0
262.5	3.5	Repeat	stimuli/objects/setsof2/030b.jp	30	1	Old	1.095	0
266.0	3.5	Foil	stimuli/objects/foils/foil_1220.JP	0	3	New	0.834	0
269.5	3.5	Repeat	stimuli/objects/setsof2/162b.jp	162	1	Old	0.995	0
273.0	3.5	Foil	stimuli/objects/foils/foil_1397.JP	0	3	New	0.776	0
276.5	3.5	First	stimuli/objects/setsof2/090b.jp	90	3	New	0.873	0
280.0	3.5	Repeat	stimuli/objects/setsof2/073a.jp	73	5	None	1.733	0
283.5	3.5	First	stimuli/objects/setsof2/143a.jp	143	3	New	1.218	0
287.0	3.5	Repeat	stimuli/objects/setsof2/172a.jp	172	1	Old	1.589	0
290.5	3.5	First	stimuli/objects/setsof2/068a.jp	68	2	Similar	1.520	0
294.0	3.5	Foil	stimuli/objects/foils/foil_1076.JP	0	3	New	1.087	0
297.5	3.5	First	stimuli/objects/setsof2/009b.jp	9	3	New	1.429	0
301.0	3.5	Lure	stimuli/objects/setsof2/115a.jp	115	2	Similar	1.397	1
304.5	3.5	Repeat	stimuli/objects/setsof2/143a.jp	143	3	New	1.101	0
308.0	3.5	Foil	stimuli/objects/foils/foil_1145.JP	0	3	New	1.195	0
311.5	3.5	First	stimuli/objects/setsof2/174a.jp	174	3	New	1.620	0
315.0	3.5	Lure	stimuli/objects/setsof2/090a.jp	90	5	None	1.730	3
318.5	3.5	First	stimuli/objects/setsof2/051a.jp	51	3	New	1.462	0
322.0	3.5	Repeat	stimuli/objects/setsof2/068a.jp	68	1	Old	1.099	0
325.5	3.5	Repeat	stimuli/objects/setsof2/149b.jp	149	1	Old	1.158	0
329.0	3.5	First	stimuli/objects/setsof2/173a.jp	173	3	New	0.838	0
332.5	3.5	Foil	stimuli/objects/foils/foil_1352.JP	0	3	New	1.335	0
336.0	3.5	Foil	stimuli/objects/foils/foil_1661.JP	0	3	New	0.953	0
339.5	3.5	Foil	stimuli/objects/foils/foil_1343.JP	0	5	None	1.729	0
343.0	3.5	Lure	stimuli/objects/setsof2/174b.jp	174	2	Similar	1.046	6
346.5	3.5	Foil	stimuli/objects/foils/foil_1279.JP	0	3	New	0.969	0
350.0	3.5	Foil	stimuli/objects/foils/foil_1420.JP	0	3	New	0.959	0
353.5	3.5	Repeat	stimuli/objects/setsof2/051a.jp	51	1	Old	1.030	0
357.0	3.5	Foil	stimuli/objects/foils/foil_1174.JP	0	3	New	0.761	0
360.5	3.5	Foil	stimuli/objects/foils/foil_1676.JP	0	3	New	0.778	0
364.0	3.5	Repeat	stimuli/objects/setsof2/043b.jp	43	1	Old	1.397	0
367.5	3.5	Repeat	stimuli/objects/setsof2/173a.jp	173	1	Old	1.071	0
371.0	3.5	Lure	stimuli/objects/setsof2/009a.jp	9	1	Old	1.592	4
