onset	duration	trial_type	stimulus_name	set_num	keypress	response	rt	similarity_bin
0.0	3.5	Foil	stimuli/objects/foils/foil_1231.JP	0	3	New	0.850	0
3.5	3.5	First	stimuli/objects/setsof2/190a.jp	190	3	New	0.693	0
7.0	3.5	Foil	stimuli/objects/foils/foil_1421.JP	0	3	New	0.997	0
10.5	3.5	Foil	stimuli/objects/foils/foil_1007.jp	0	5	None	1.746	0
14.0	3.5	First	stimuli/objects/setsof2/064b.jp	64	3	New	1.396	0
17.5	3.5	Foil	stimuli/objects/foils/foil_1358.JP	0	5	None	1.745	0
21.0	3.5	Foil	stimuli/objects/foils/foil_1643.JP	0	3	New	1.419	0
24.5	3.5	First	stimuli/objects/setsof2/137b.jp	137	3	New	1.309	0
28.0	3.5	Foil	stimuli/objects/foils/foil_1133.JP	0	3	New	1.286	0
31.5	3.5	Foil	stimuli/objects/foils/foil_1111.JP	0	3	New	1.095	0
35.0	3.5	Foil	stimuli/objects/foils/foil_1151.JP	0	2	Similar	1.498	0
38.5	3.5	Lure	stimuli/objects/setsof2/190b.jp	190	5	None	1.744	3
42.0	3.5	Foil	stimuli/objects/foils/foil_1693.jp	0	3	New	1.089	0
45.5	3.5	First	stimuli/objects/setsof2/180a.jp	180	3	New	0.885	0
49.0	3.5	Lure	stimuli/objects/setsof2/064a.jp	64	5	None	1.744	5
52.5	3.5	First	stimuli/objects/setsof2/188a.jp	188	3	New	0.886	0
56.0	3.5	First	stimuli/objects/setsof2/121a.jp	121	3	New	0.964	0
59.5	3.5	Repeat	stimuli/objects/setsof2/137b.jp	137	1	Old	1.245	0
63.0	3.5	Foil	stimuli/objects/foils/foil_1233.JP	0	3	New	1.038	0
66.5	3.5	First	stimuli/objects/setsof2/078b.jp	78	3	New	1.309	0
70.0	3.5	Lure	stimuli/objects/setsof2/180b.jp	180	1	Old	1.114	6
73.5	3.5	Foil	stimuli/objects/foils/foil_1722.JP	0	3	New	0.794	0
77.0	3.5	Foil	stimuli/objects/foils/foil_1516.JP	0	3	New	0.792	0
80.5	3.5	First	stimuli/objects/setsof2/133b.jp	133	5	None	1.741	0
84.0	3.5	Foil	stimuli/objects/foils/foil_1482.JP	0	3	New	1.157	0
87.5	3.5	First	stimuli/objects/setsof2/094a.jp	94	3	New	1.201	0
91.0	3.5	Repeat	stimuli/objects/setsof2/121a.jp	121	1	Old	0.944	0
94.5	3.5	Foil	stimuli/objects/foils/foil_1015.jp	0	3	New	0.829	0
98.0	3.5	First	stimuli/objects/setsof2/075b.jp	75	3	New	0.898	0
101.5	3.5	Foil	stimuli/objects/foils/foil_1696.JP	0	3	New	1.072	0
105.0	3.5	Foil	stimuli/objects/foils/foil_1247.JP	0	3	New	1.379	0
108.5	3.5	First	stimuli/objects/setsof2/048b.jp	48	3	New	1.362	0
112.0	3.5	Repeat	stimuli/objects/setsof2/133b.jp	133	1	Old	1.108	0
115.5	3.5	Foil	stimuli/objects/foils/foil_1020.jp	0	3	New	0.920	0
119.0	3.5	First	stimuli/objects/setsof2/003a.jp	3	1	Old	1.374	0
122.5	3.5	Foil	stimuli/objects/foils/foil_1031.JP	0	3	New	0.944	0
126.0	3.5	Foil	stimuli/objects/foils/foil_1489.JP	0	5	None	1.739	0
129.5	3.5	First	stimuli/objects/setsof2/171b.jp	171	3	New	1.272	0
133.0	3.5	Foil	stimuli/objects/foils/foil_1067.JP	0	3	New	0.856	0
136.5	3.5	Foil	stimuli/objects/foils/foil_1392.JP	0	3	New	0.757	0
140.0	3.5	First	stimuli/objects/setsof2/086a.jp	86	3	New	0.925	0
143.5	3.5	Foil	stimuli/objects/foils/foil_1029.JP	0	3	New	0.774	0
147.0	3.5	Foil	stimuli/objects/foils/foil_1079.JP	0	2	Similar	1.175	0
150.5	3.5	Foil	stimuli/objects/foils/foil_1463.JP	0	3	New	0.984	0
154.0	3.5	Foil	stimuli/objects/foils/foil_1282.JP	0	3	New	0.945	0
157.5	3.5	Foil	stimuli/objects/foils/foil_1464.JP	0	3	New	1.344	0
161.0	3.5	First	stimuli/objects/setsof2/022b.jp	22	5	None	1.736	0
164.5	3.5	Foil	stimuli/objects/foils/foil_1640.JP	0	5	None	1.736	0
168.0	3.5	First	stimuli/objects/setsof2/004a.jp	4	5	None	1.736	0
171.5	3.5	First	stimuli/objects/setsof2/040a.jp	40	3	New	1.243	0
175.0	3.5	Repeat	stimuli/objects/setsof2/086a.jp	86	1	Old	1.046	0
178.5	3.5	Foil	stimuli/objects/foils/foil_1431.JP	0	3	New	1.135	0
182.0	3.5	First	stimuli/objects/setsof2/049a.jp	49	3	New	0.792	0
185.5	3.5	Foil	stimuli/objects/foils/foil_1406.JP	0	3	New	1.335	0
189.0	3.5	Repeat	stimuli/objects/setsof2/188a.jp	188	1	Old	1.146	0
192.5	3.5	First	stimuli/objects/setsof2/128a.jp	128	3	New	0.870	0
196.0	3.5	Foil	stimuli/objects/foils/foil_1541.JP	0	3	New	0.688	0
199.5	3.5	Foil	stimuli/objects/foils/foil_1506.JP	0	3	New	0.734	0
203.0	3.5	First	stimuli/objects/setsof2/017b.jp	17	3	New	0.816	0
206.5	3.5	Foil	stimuli/objects/foils/foil_1340.JP	0	3	New	0.585	0
210.0	3.5	Foil	stimuli/objects/foils/foil_1399.JP	0	3	New	0.904	0
213.5	3.5	Repeat	stimuli/objects/setsof2/078b.jp	78	2	Similar	1.145	0
217.0	3.5	First	stimuli/objects/setsof2/134a.jp	134	3	New	0.973	0
220.5	3.5	Repeat	stimuli/objects/setsof2/049a.jp	49	1	Old	1.080	0
224.0	3.5	Lure	stimuli/objects/setsof2/022a.jp	22	1	Old	1.094	5
227.5	3.5	First	stimuli/objects/setsof2/144b.jp	144	3	New	0.830	0
231.0	3.5	Foil	stimuli/objects/foils/foil_1142.JP	0	3	New	1.474	0
234.5	3.5	First	stimuli/objects/setsof2/164a.jp	164	3	New	1.636	0
238.0	3.5	Lure	stimuli/objects/setsof2/075a.jp	75	1	Old	1.511	5
241.5	3.5	Repeat	stimuli/objects/setsof2/040a.jp	40	1	Old	1.644	0
245.0	3.5	Repeat	stimuli/objects/setsof2/094a.jp	94	1	Old	1.626	0
248.5	3.5	First	stimuli/objects/setsof2/099b.jp	99	3	New	0.973	0
252.0	3.5	Lure	stimuli/objects/setsof2/048a.jp	48	2	Similar	1.082	2
255.5	3.5	Foil	stimuli/objects/foils/foil_1677.JP	0	3	New	0.915	0
259.0	3.5	Lure	stimuli/objects/setsof2/003b.jp	3	3	New	0.858	1
262.5	3.5	First	stimuli/objects/setsof2/113b.jp	113	3	New	1.406	0
266.0	3.5	First	stimuli/objects/setsof2/079b.jp	79	5	None	1.730	0
269.5	3.5	Lure	stimuli/objects/setsof2/128b.jp	128	1	Old	0.942	5
273.0	3.5	Lure	stimuli/objects/setsof2/171a.jp	171	1	Old	1.533	2
276.5	3.5	Repeat	stimuli/objects/setsof2/017b.jp	17	1	Old	1.188	0
280.0	3.5	Lure	stimuli/objects/setsof2/099a.jp	99	1	Old	0.841	6
283.5	3.5	Lure	stimuli/objects/setsof2/134b.jp	134	3	New	1.006	1
287.0	3.5	First	stimuli/objects/setsof2/046a.jp	46	3	New	0.927	0
290.5	3.5	Repeat	stimuli/objects/setsof2/113b.jp	113	2	Similar	1.191	0
294.0	3.5	Lure	stimuli/objects/setsof2/144a.jp	144	2	Similar	1.411	3
297.5	3.5	First	stimuli/objects/setsof2/025a.jp	25	3	New	0.739	0
301.0	3.5	Repeat	stimuli/objects/setsof2/004a.jp	4	2	Similar	1.146	0
304.5	3.5	First	stimuli/objects/setsof2/002b.jp	2	3	New	1.126	0
308.0	3.5	Lure	stimuli/objects/setsof2/164b.jp	164	3	New	1.174	4
311.5	3.5	Repeat	stimuli/objects/setsof2/002b.jp	2	1	Old	0.927	0
315.0	3.5	First	stimuli/objects/setsof2/014a.jp	14	3	New	0.738	0
318.5	3.5	First	stimuli/objects/setsof2/124b.jp	124	3	New	1.122	0
322.0	3.5	Lure	stimuli/objects/setsof2/046b.jp	46	2	Similar	1.222	2
325.5	3.5	Foil	stimuli/objects/foils/foil_1682.jp	0	3	New	1.069	0
329.0	3.5	First	stimuli/objects/setsof2/074a.jp	74	3	New	0.982	0
332.5	3.5	Foil	stimuli/objects/foils/foil_1593.jp	0	3	New	1.312	0
336.0	3.5	Repeat	stimuli/objects/setsof2/025a.jp	25	1	Old	1.017	0
339.5	3.5	Foil	stimuli/objects/foils/foil_1205.JP	0	3	New	0.873	0
343.0	3.5	Repeat	stimuli/objects/setsof2/014a.jp	14	1	Old	1.076	0
346.5	3.5	Foil	stimuli/objects/foils/foil_1699.JP	0	3	New	0.726	0
350.0	3.5	Repeat	stimuli/objects/setsof2/079b.jp	79	1	Old	1.127	0
353.5	3.5	Foil	stimuli/objects/foils/foil_1468.JP	0	3	New	0.929	0
357.0	3.5	Foil	stimuli/objects/foils/foil_1487.JP	0	3	New	0.916	0
360.5	3.5	Lure	stimuli/objects/setsof2/124a.jp	124	2	Similar	1.429	1
364.0	3.5	Lure	stimuli/objects/setsof2/074b.jp	74	1	Old	1.564	6
367.5	3.5	Foil	stimuli/objects/foils/foil_1136.JP	0	3	New	0.873	0
371.0	3.5	Foil	stimuli/objects/foils/foil_1109.JP	0	3	New	1.085	0
