onset	duration	trial_type	stimulus_name	set_num	keypress	response	rt	similarity_bin
0.0	3.5	Foil	stimuli/objects/foils/foil_1273.JPG	0	3#	New	1.665	0
3.5	3.5	Foil	stimuli/objects/foils/foil_1155.JPG	0	3#	New	1.533	0
7.0	3.5	Foil	stimuli/objects/foils/foil_1125.JPG	0	3#	New	1.427	0
10.5	3.5	First	stimuli/objects/setsof2/136a.jpg	136	3#	New	1.039	0
14.0	3.5	First	stimuli/objects/setsof2/033b.jpg	33	3#	New	1.284	0
17.5	3.5	Foil	stimuli/objects/foils/foil_1647.JPG	0	3#	New	1.228	0
21.0	3.5	Foil	stimuli/objects/foils/foil_1704.JPG	0	3#	New	1.025	0
24.5	3.5	First	stimuli/objects/setsof2/096b.jpg	96	3#	New	0.935	0
28.0	3.5	Foil	stimuli/objects/foils/foil_1564.JPG	0	3#	New	1.238	0
31.5	3.5	Foil	stimuli/objects/foils/foil_1263.JPG	0	3#	New	0.922	0
35.0	3.5	Foil	stimuli/objects/foils/foil_1605.JPG	0	3#	New	0.988	0
38.5	3.5	First	stimuli/objects/setsof2/167a.jpg	167	3#	New	0.968	0
42.0	3.5	Lure	stimuli/objects/setsof2/136b.jpg	136	2@	Similar	1.378	1
45.5	3.5	First	stimuli/objects/setsof2/131a.jpg	131	3#	New	1.036	0
49.0	3.5	Foil	stimuli/objects/foils/foil_1496.JPG	0	3#	New	1.007	0
52.5	3.5	Foil	stimuli/objects/foils/foil_1638.jpg	0	5%	None	1.742	0
56.0	3.5	First	stimuli/objects/setsof2/009a.jpg	9	3#	New	1.672	0
59.5	3.5	Foil	stimuli/objects/foils/foil_1316.JPG	0	5%	None	1.741	0
63.0	3.5	Foil	stimuli/objects/foils/foil_1448.JPG	0	3#	New	1.467	0
66.5	3.5	Foil	stimuli/objects/foils/foil_1672.JPG	0	5%	None	1.741	0
70.0	3.5	Repeat	stimuli/objects/setsof2/167a.jpg	167	5%	None	1.741	0
73.5	3.5	Foil	stimuli/objects/foils/foil_1044.JPG	0	3#	New	1.366	0
77.0	3.5	First	stimuli/objects/setsof2/133b.jpg	133	5%	None	1.741	0
80.5	3.5	Repeat	stimuli/objects/setsof2/131a.jpg	131	1!	Old	1.655	0
84.0	3.5	Foil	stimuli/objects/foils/foil_1057.JPG	0	3#	New	1.512	0
87.5	3.5	First	stimuli/objects/setsof2/099a.jpg	99	3#	New	1.149	0
91.0	3.5	First	stimuli/objects/setsof2/146b.jpg	146	3#	New	1.694	0
94.5	3.5	Foil	stimuli/objects/foils/foil_1256.JPG	0	5%	None	1.739	0
98.0	3.5	First	stimuli/objects/setsof2/111a.jpg	111	3#	New	1.126	0
101.5	3.5	Lure	stimuli/objects/setsof2/146a.jpg	146	5%	None	1.739	1
105.0	3.5	Foil	stimuli/objects/foils/foil_1409.JPG	0	5%	None	1.739	0
108.5	3.5	Foil	stimuli/objects/foils/foil_1201.JPG	0	3#	New	1.652	0
112.0	3.5	Foil	stimuli/objects/foils/foil_1501.JPG	0	3#	New	0.983	0
115.5	3.5	Foil	stimuli/objects/foils/foil_1231.JPG	0	3#	New	1.521	0
119.0	3.5	First	stimuli/objects/setsof2/123b.jpg	123	3#	New	0.846	0
122.5	3.5	Repeat	stimuli/objects/setsof2/099a.jpg	99	1!	Old	1.222	0
126.0	3.5	First	stimuli/objects/setsof2/157a.jpg	157	5%	None	1.737	0
129.5	3.5	First	stimuli/objects/setsof2/059b.jpg	59	3#	New	1.330	0
133.0	3.5	Foil	stimuli/objects/foils/foil_1591.JPG	0	3#	New	1.733	0
136.5	3.5	Foil	stimuli/objects/foils/foil_1286.JPG	0	3#	New	0.983	0
140.0	3.5	First	stimuli/objects/setsof2/137a.jpg	137	3#	New	1.079	0
143.5	3.5	Foil	stimuli/objects/foils/foil_1585.JPG	0	3#	New	0.854	0
147.0	3.5	Foil	stimuli/objects/foils/foil_1451.JPG	0	3#	New	0.765	0
150.5	3.5	First	stimuli/objects/setsof2/029b.jpg	29	3#	New	0.496	0
154.0	3.5	Lure	stimuli/objects/setsof2/033a.jpg	33	1!	Old	1.207	4
157.5	3.5	Foil	stimuli/objects/foils/foil_1061.JPG	0	3#	New	1.724	0
161.0	3.5	First	stimuli/objects/setsof2/147b.jpg	147	3#	New	0.999	0
164.5	3.5	Repeat	stimuli/objects/setsof2/096b.jpg	96	1!	Old	1.115	0
168.0	3.5	Foil	stimuli/objects/foils/foil_1371.JPG	0	3#	New	0.891	0
171.5	3.5	First	stimuli/objects/setsof2/114a.jpg	114	5%	None	1.734	0
175.0	3.5	Repeat	stimuli/objects/setsof2/137a.jpg	137	1!	Old	1.090	0
178.5	3.5	Foil	stimuli/objects/foils/foil_1608.JPG	0	3#	New	1.019	0
182.0	3.5	First	stimuli/objects/setsof2/180b.jpg	180	3#	New	1.075	0
185.5	3.5	Foil	stimuli/objects/foils/foil_1518.JPG	0	3#	New	1.048	0
189.0	3.5	Foil	stimuli/objects/foils/foil_1055.JPG	0	3#	New	0.945	0
192.5	3.5	First	stimuli/objects/setsof2/107b.jpg	107	3#	New	0.968	0
196.0	3.5	Repeat	stimuli/objects/setsof2/123b.jpg	123	1!	Old	1.151	0
199.5	3.5	Lure	stimuli/objects/setsof2/059a.jpg	59	5%	None	1.733	1
203.0	3.5	Repeat	stimuli/objects/setsof2/009a.jpg	9	1!	Old	1.604	0
206.5	3.5	First	stimuli/objects/setsof2/051b.jpg	51	3#	New	0.864	0
210.0	3.5	Foil	stimuli/objects/foils/foil_1312.JPG	0	5%	None	1.731	0
213.5	3.5	Lure	stimuli/objects/setsof2/114b.jpg	114	1!	Old	1.389	5
217.0	3.5	Repeat	stimuli/objects/setsof2/133b.jpg	133	1!	Old	0.921	0
220.5	3.5	First	stimuli/objects/setsof2/106b.jpg	106	3#	New	1.353	0
224.0	3.5	First	stimuli/objects/setsof2/011a.jpg	11	3#	New	1.137	0
227.5	3.5	Foil	stimuli/objects/foils/foil_1725.jpg	0	3#	New	1.458	0
231.0	3.5	Foil	stimuli/objects/foils/foil_1228.JPG	0	3#	New	0.700	0
234.5	3.5	First	stimuli/objects/setsof2/018a.jpg	18	3#	New	0.787	0
238.0	3.5	Repeat	stimuli/objects/setsof2/147b.jpg	147	3#	New	0.860	0
241.5	3.5	Foil	stimuli/objects/foils/foil_1575.JPG	0	3#	New	0.814	0
245.0	3.5	First	stimuli/objects/setsof2/121b.jpg	121	5%	None	1.730	0
248.5	3.5	Lure	stimuli/objects/setsof2/111b.jpg	111	5%	None	1.729	2
252.0	3.5	Repeat	stimuli/objects/setsof2/157a.jpg	157	1!	Old	1.066	0
255.5	3.5	First	stimuli/objects/setsof2/118a.jpg	118	3#	New	1.656	0
259.0	3.5	Lure	stimuli/objects/setsof2/180a.jpg	180	1!	Old	1.057	6
262.5	3.5	Foil	stimuli/objects/foils/foil_1089.JPG	0	5%	None	1.728	0
266.0	3.5	Repeat	stimuli/objects/setsof2/011a.jpg	11	1!	Old	0.823	0
269.5	3.5	First	stimuli/objects/setsof2/061b.jpg	61	3#	New	0.998	0
273.0	3.5	Lure	stimuli/objects/setsof2/051a.jpg	51	2@	Similar	1.182	2
276.5	3.5	First	stimuli/objects/setsof2/100b.jpg	100	3#	New	1.489	0
280.0	3.5	Lure	stimuli/objects/setsof2/121a.jpg	121	1!	Old	1.050	6
283.5	3.5	Lure	stimuli/objects/setsof2/018b.jpg	18	2@	Similar	1.195	1
287.0	3.5	Lure	stimuli/objects/setsof2/106a.jpg	106	1!	Old	0.955	5
290.5	3.5	First	stimuli/objects/setsof2/035a.jpg	35	5%	None	1.726	0
294.0	3.5	Repeat	stimuli/objects/setsof2/029b.jpg	29	1!	Old	1.198	0
297.5	3.5	Foil	stimuli/objects/foils/foil_1579.JPG	0	3#	New	1.236	0
301.0	3.5	First	stimuli/objects/setsof2/037b.jpg	37	1!	Old	1.614	0
304.5	3.5	Foil	stimuli/objects/foils/foil_1048.JPG	0	3#	New	1.485	0
308.0	3.5	First	stimuli/objects/setsof2/174a.jpg	174	3#	New	0.624	0
311.5	3.5	Lure	stimuli/objects/setsof2/061a.jpg	61	1!	Old	1.265	5
315.0	3.5	Foil	stimuli/objects/foils/foil_1191.JPG	0	3#	New	1.280	0
318.5	3.5	First	stimuli/objects/setsof2/189a.jpg	189	1!	Old	1.190	0
322.0	3.5	Lure	stimuli/objects/setsof2/035b.jpg	35	2@	Similar	1.377	3
325.5	3.5	Lure	stimuli/objects/setsof2/100a.jpg	100	1!	Old	1.424	5
329.0	3.5	Repeat	stimuli/objects/setsof2/118a.jpg	118	5%	None	1.724	0
332.5	3.5	First	stimuli/objects/setsof2/128a.jpg	128	3#	New	1.688	0
336.0	3.5	Foil	stimuli/objects/foils/foil_1684.JPG	0	3#	New	0.973	0
339.5	3.5	Repeat	stimuli/objects/setsof2/107b.jpg	107	1!	Old	1.711	0
343.0	3.5	Lure	stimuli/objects/setsof2/174b.jpg	174	5%	None	1.723	6
346.5	3.5	Foil	stimuli/objects/foils/foil_1495.JPG	0	3#	New	0.901	0
350.0	3.5	Foil	stimuli/objects/foils/foil_1011.jpg	0	3#	New	1.497	0
353.5	3.5	Repeat	stimuli/objects/setsof2/189a.jpg	189	5%	None	1.722	0
357.0	3.5	Foil	stimuli/objects/foils/foil_1433.JPG	0	5%	None	1.722	0
360.5	3.5	Foil	stimuli/objects/foils/foil_1707.JPG	0	3#	New	1.257	0
364.0	3.5	Foil	stimuli/objects/foils/foil_1203.JPG	0	3#	New	1.267	0
367.5	3.5	Repeat	stimuli/objects/setsof2/128a.jpg	128	1!	Old	0.937	0
371.0	3.5	Lure	stimuli/objects/setsof2/037a.jpg	37	1!	Old	1.209	6
