onset	duration	trial_type	stimulus_name	set_num	keypress	response	rt	similarity_bin
0.0	3.5	Foil	stimuli/objects/foils/foil_1256.JPG	0	3#	New	1.012	0
3.5	3.5	First	stimuli/objects/setsof2/040b.jpg	40	3#	New	1.442	0
7.0	3.5	Foil	stimuli/objects/foils/foil_1003.jpg	0	3#	New	1.572	0
10.5	3.5	Foil	stimuli/objects/foils/foil_1090.JPG	0	3#	New	1.103	0
14.0	3.5	Foil	stimuli/objects/foils/foil_1008.jpg	0	3#	New	1.045	0
17.5	3.5	First	stimuli/objects/setsof2/172b.jpg	172	3#	New	0.963	0
21.0	3.5	Foil	stimuli/objects/foils/foil_1653.JPG	0	3#	New	0.907	0
24.5	3.5	Foil	stimuli/objects/foils/foil_1630.jpg	0	3#	New	0.601	0
28.0	3.5	First	stimuli/objects/setsof2/011b.jpg	11	3#	New	0.756	0
31.5	3.5	Foil	stimuli/objects/foils/foil_1394.JPG	0	3#	New	0.698	0
35.0	3.5	First	stimuli/objects/setsof2/072a.jpg	72	3#	New	1.523	0
38.5	3.5	Foil	stimuli/objects/foils/foil_1314.JPG	0	3#	New	1.108	0
42.0	3.5	Foil	stimuli/objects/foils/foil_1555.JPG	0	3#	New	0.804	0
45.5	3.5	Foil	stimuli/objects/foils/foil_1378.JPG	0	3#	New	0.683	0
49.0	3.5	Foil	stimuli/objects/foils/foil_1047.JPG	0	3#	New	0.635	0
52.5	3.5	Foil	stimuli/objects/foils/foil_1444.JPG	0	3#	New	0.601	0
56.0	3.5	First	stimuli/objects/setsof2/164a.jpg	164	1!	Old	1.545	0
59.5	3.5	Foil	stimuli/objects/foils/foil_1288.jpg	0	3#	New	0.874	0
63.0	3.5	First	stimuli/objects/setsof2/135a.jpg	135	3#	New	0.849	0
66.5	3.5	Foil	stimuli/objects/foils/foil_1395.JPG	0	3#	New	1.063	0
70.0	3.5	First	stimuli/objects/setsof2/100b.jpg	100	3#	New	1.080	0
73.5	3.5	Foil	stimuli/objects/foils/foil_1072.JPG	0	3#	New	0.815	0
77.0	3.5	First	stimuli/objects/setsof2/174a.jpg	174	3#	New	0.811	0
80.5	3.5	Lure	stimuli/objects/setsof2/072b.jpg	72	1!	Old	1.096	6
84.0	3.5	Foil	stimuli/objects/foils/foil_1660.jpg	0	3#	New	0.794	0
87.5	3.5	Repeat	stimuli/objects/setsof2/135a.jpg	135	1!	Old	1.031	0
91.0	3.5	First	stimuli/objects/setsof2/020b.jpg	20	3#	New	0.755	0
94.5	3.5	Foil	stimuli/objects/foils/foil_1168.JPG	0	3#	New	0.843	0
98.0	3.5	First	stimuli/objects/setsof2/175a.jpg	175	3#	New	1.031	0
101.5	3.5	Lure	stimuli/objects/setsof2/164b.jpg	164	2@	Similar	1.503	4
105.0	3.5	Foil	stimuli/objects/foils/foil_1195.JPG	0	3#	New	0.906	0
108.5	3.5	Foil	stimuli/objects/foils/foil_1564.JPG	0	3#	New	0.903	0
112.0	3.5	First	stimuli/objects/setsof2/097a.jpg	97	3#	New	1.296	0
115.5	3.5	Foil	stimuli/objects/foils/foil_1421.JPG	0	3#	New	1.071	0
119.0	3.5	First	stimuli/objects/setsof2/029b.jpg	29	3#	New	0.825	0
122.5	3.5	Repeat	stimuli/objects/setsof2/020b.jpg	20	1!	Old	1.236	0
126.0	3.5	Foil	stimuli/objects/foils/foil_1448.JPG	0	3#	New	0.937	0
129.5	3.5	Foil	stimuli/objects/foils/foil_1228.JPG	0	3#	New	1.046	0
133.0	3.5	First	stimuli/objects/setsof2/036b.jpg	36	3#	New	1.034	0
136.5	3.5	Repeat	stimuli/objects/setsof2/175a.jpg	175	1!	Old	0.977	0
140.0	3.5	First	stimuli/objects/setsof2/116b.jpg	116	3#	New	0.779	0
143.5	3.5	Foil	stimuli/objects/foils/foil_1454.JPG	0	3#	New	1.611	0
147.0	3.5	Foil	stimuli/objects/foils/foil_1409.JPG	0	3#	New	1.077	0
150.5	3.5	Lure	stimuli/objects/setsof2/040a.jpg	40	1!	Old	1.267	5
154.0	3.5	Lure	stimuli/objects/setsof2/172a.jpg	172	1!	Old	1.619	3
157.5	3.5	Foil	stimuli/objects/foils/foil_1419.JPG	0	3#	New	1.072	0
161.0	3.5	First	stimuli/objects/setsof2/178b.jpg	178	3#	New	1.038	0
164.5	3.5	Repeat	stimuli/objects/setsof2/011b.jpg	11	1!	Old	1.240	0
168.0	3.5	Foil	stimuli/objects/foils/foil_1012.jpg	0	3#	New	0.980	0
171.5	3.5	First	stimuli/objects/setsof2/071b.jpg	71	3#	New	1.071	0
175.0	3.5	Foil	stimuli/objects/foils/foil_1132.JPG	0	3#	New	0.867	0
178.5	3.5	First	stimuli/objects/setsof2/023b.jpg	23	3#	New	0.718	0
182.0	3.5	First	stimuli/objects/setsof2/082a.jpg	82	3#	New	0.916	0
185.5	3.5	Lure	stimuli/objects/setsof2/097b.jpg	97	1!	Old	1.397	2
189.0	3.5	Foil	stimuli/objects/foils/foil_1335.JPG	0	3#	New	1.054	0
192.5	3.5	First	stimuli/objects/setsof2/006b.jpg	6	3#	New	1.202	0
196.0	3.5	Foil	stimuli/objects/foils/foil_1046.JPG	0	3#	New	0.814	0
199.5	3.5	Lure	stimuli/objects/setsof2/029a.jpg	29	2@	Similar	1.025	1
203.0	3.5	First	stimuli/objects/setsof2/076b.jpg	76	3#	New	1.488	0
206.5	3.5	Repeat	stimuli/objects/setsof2/036b.jpg	36	5%	None	1.737	0
210.0	3.5	Repeat	stimuli/objects/setsof2/100b.jpg	100	1!	Old	1.367	0
213.5	3.5	First	stimuli/objects/setsof2/103b.jpg	103	3#	New	0.791	0
217.0	3.5	Foil	stimuli/objects/foils/foil_1432.JPG	0	3#	New	1.372	0
220.5	3.5	Foil	stimuli/objects/foils/foil_1155.JPG	0	3#	New	0.986	0
224.0	3.5	First	stimuli/objects/setsof2/092b.jpg	92	3#	New	0.632	0
227.5	3.5	Lure	stimuli/objects/setsof2/174b.jpg	174	1!	Old	1.034	6
231.0	3.5	Foil	stimuli/objects/foils/foil_1386.JPG	0	2@	Similar	1.324	0
234.5	3.5	First	stimuli/objects/setsof2/185b.jpg	185	3#	New	1.003	0
238.0	3.5	Lure	stimuli/objects/setsof2/006a.jpg	6	3#	New	1.069	2
241.5	3.5	Repeat	stimuli/objects/setsof2/023b.jpg	23	1!	Old	1.124	0
245.0	3.5	First	stimuli/objects/setsof2/154b.jpg	154	3#	New	0.903	0
248.5	3.5	Lure	stimuli/objects/setsof2/103a.jpg	103	2@	Similar	1.478	1
252.0	3.5	Lure	stimuli/objects/setsof2/076a.jpg	76	2@	Similar	1.446	1
255.5	3.5	First	stimuli/objects/setsof2/187a.jpg	187	3#	New	0.912	0
259.0	3.5	Repeat	stimuli/objects/setsof2/092b.jpg	92	1!	Old	1.092	0
262.5	3.5	Foil	stimuli/objects/foils/foil_1374.JPG	0	3#	New	0.827	0
266.0	3.5	Repeat	stimuli/objects/setsof2/082a.jpg	82	2@	Similar	1.261	0
269.5	3.5	First	stimuli/objects/setsof2/041b.jpg	41	3#	New	1.034	0
273.0	3.5	Foil	stimuli/objects/foils/foil_1069.JPG	0	3#	New	1.493	0
276.5	3.5	Repeat	stimuli/objects/setsof2/185b.jpg	185	1!	Old	1.051	0
280.0	3.5	Lure	stimuli/objects/setsof2/116a.jpg	116	2@	Similar	1.175	4
283.5	3.5	First	stimuli/objects/setsof2/078a.jpg	78	3#	New	0.823	0
287.0	3.5	First	stimuli/objects/setsof2/126a.jpg	126	3#	New	0.968	0
290.5	3.5	Foil	stimuli/objects/foils/foil_1334.JPG	0	3#	New	1.233	0
294.0	3.5	Lure	stimuli/objects/setsof2/178a.jpg	178	5%	None	1.732	1
297.5	3.5	First	stimuli/objects/setsof2/143a.jpg	143	3#	New	1.401	0
301.0	3.5	Repeat	stimuli/objects/setsof2/071b.jpg	71	5%	None	1.732	0
304.5	3.5	Foil	stimuli/objects/foils/foil_1436.JPG	0	5%	None	1.732	0
308.0	3.5	Foil	stimuli/objects/foils/foil_1695.JPG	0	3#	New	0.951	0
311.5	3.5	First	stimuli/objects/setsof2/120a.jpg	120	3#	New	1.111	0
315.0	3.5	Lure	stimuli/objects/setsof2/154a.jpg	154	2@	Similar	0.948	1
318.5	3.5	First	stimuli/objects/setsof2/183a.jpg	183	3#	New	1.029	0
322.0	3.5	Repeat	stimuli/objects/setsof2/126a.jpg	126	1!	Old	1.210	0
325.5	3.5	Lure	stimuli/objects/setsof2/078b.jpg	78	1!	Old	1.564	4
329.0	3.5	Lure	stimuli/objects/setsof2/187b.jpg	187	2@	Similar	1.472	1
332.5	3.5	Repeat	stimuli/objects/setsof2/143a.jpg	143	1!	Old	0.906	0
336.0	3.5	Repeat	stimuli/objects/setsof2/041b.jpg	41	1!	Old	0.979	0
339.5	3.5	First	stimuli/objects/setsof2/057a.jpg	57	3#	New	0.977	0
343.0	3.5	Foil	stimuli/objects/foils/foil_1573.JPG	0	3#	New	0.897	0
346.5	3.5	Foil	stimuli/objects/foils/foil_1183.JPG	0	3#	New	0.989	0
350.0	3.5	Repeat	stimuli/objects/setsof2/120a.jpg	120	1!	Old	0.879	0
353.5	3.5	Foil	stimuli/objects/foils/foil_1636.JPG	0	5%	None	1.729	0
357.0	3.5	Repeat	stimuli/objects/setsof2/183a.jpg	183	2@	Similar	0.993	0
360.5	3.5	Foil	stimuli/objects/foils/foil_1058.JPG	0	5%	None	1.729	0
364.0	3.5	Lure	stimuli/objects/setsof2/057b.jpg	57	2@	Similar	1.290	4
367.5	3.5	Foil	stimuli/objects/foils/foil_1708.JPG	0	3#	New	0.992	0
371.0	3.5	Foil	stimuli/objects/foils/foil_1719.JPG	0	3#	New	0.883	0
