onset	duration	trial_type	stimulus_name	set_num	keypress	response	rt	similarity_bin
0.0	3.5	Foil	stimuli/objects/foils/foil_1387.JPG	0	3#	New	1.616	0
3.5	3.5	First	stimuli/objects/setsof2/187a.jpg	187	3#	New	1.720	0
7.0	3.5	Foil	stimuli/objects/foils/foil_1017.jpg	0	3#	New	1.543	0
10.5	3.5	Foil	stimuli/objects/foils/foil_1163.JPG	0	3#	New	1.394	0
14.0	3.5	Foil	stimuli/objects/foils/foil_1277.JPG	0	3#	New	0.916	0
17.5	3.5	Foil	stimuli/objects/foils/foil_1303.JPG	0	3#	New	0.941	0
21.0	3.5	Foil	stimuli/objects/foils/foil_1514.JPG	0	3#	New	1.358	0
24.5	3.5	First	stimuli/objects/setsof2/192a.jpg	192	3#	New	1.401	0
28.0	3.5	Foil	stimuli/objects/foils/foil_1522.JPG	0	3#	New	1.613	0
31.5	3.5	Foil	stimuli/objects/foils/foil_1721.JPG	0	3#	New	1.123	0
35.0	3.5	First	stimuli/objects/setsof2/176a.jpg	176	3#	New	1.473	0
38.5	3.5	Repeat	stimuli/objects/setsof2/187a.jpg	187	1!	Old	1.149	0
42.0	3.5	First	stimuli/objects/setsof2/146a.jpg	146	3#	New	0.879	0
45.5	3.5	First	stimuli/objects/setsof2/131b.jpg	131	3#	New	0.808	0
49.0	3.5	Foil	stimuli/objects/foils/foil_1648.JPG	0	3#	New	1.272	0
52.5	3.5	Foil	stimuli/objects/foils/foil_1703.JPG	0	3#	New	1.333	0
56.0	3.5	Foil	stimuli/objects/foils/foil_1342.JPG	0	3#	New	0.748	0
59.5	3.5	First	stimuli/objects/setsof2/117a.jpg	117	3#	New	1.208	0
63.0	3.5	Repeat	stimuli/objects/setsof2/192a.jpg	192	5%	None	1.742	0
66.5	3.5	Foil	stimuli/objects/foils/foil_1556.JPG	0	3#	New	0.774	0
70.0	3.5	Repeat	stimuli/objects/setsof2/176a.jpg	176	1!	Old	1.330	0
73.5	3.5	Foil	stimuli/objects/foils/foil_1340.JPG	0	3#	New	0.736	0
77.0	3.5	First	stimuli/objects/setsof2/166b.jpg	166	3#	New	1.018	0
80.5	3.5	Lure	stimuli/objects/setsof2/131a.jpg	131	1!	Old	1.680	3
84.0	3.5	Foil	stimuli/objects/foils/foil_1080.JPG	0	3#	New	1.010	0
87.5	3.5	First	stimuli/objects/setsof2/169a.jpg	169	3#	New	0.976	0
91.0	3.5	Lure	stimuli/objects/setsof2/117b.jpg	117	2@	Similar	1.139	2
94.5	3.5	Foil	stimuli/objects/foils/foil_1225.JPG	0	3#	New	1.164	0
98.0	3.5	First	stimuli/objects/setsof2/077b.jpg	77	3#	New	0.748	0
101.5	3.5	First	stimuli/objects/setsof2/181b.jpg	181	3#	New	1.554	0
105.0	3.5	Repeat	stimuli/objects/setsof2/169a.jpg	169	5%	None	1.740	0
108.5	3.5	Foil	stimuli/objects/foils/foil_1046.JPG	0	3#	New	0.811	0
112.0	3.5	Foil	stimuli/objects/foils/foil_1531.JPG	0	5%	None	1.740	0
115.5	3.5	First	stimuli/objects/setsof2/132b.jpg	132	3#	New	0.978	0
119.0	3.5	First	stimuli/objects/setsof2/057b.jpg	57	3#	New	0.987	0
122.5	3.5	Foil	stimuli/objects/foils/foil_1607.JPG	0	5%	None	1.739	0
126.0	3.5	Foil	stimuli/objects/foils/foil_1076.JPG	0	3#	New	0.768	0
129.5	3.5	First	stimuli/objects/setsof2/042a.jpg	42	3#	New	0.876	0
133.0	3.5	Foil	stimuli/objects/foils/foil_1643.JPG	0	3#	New	0.878	0
136.5	3.5	Foil	stimuli/objects/foils/foil_1509.JPG	0	3#	New	1.520	0
140.0	3.5	First	stimuli/objects/setsof2/168a.jpg	168	2@	Similar	1.232	0
143.5	3.5	Foil	stimuli/objects/foils/foil_1669.JPG	0	3#	New	1.324	0
147.0	3.5	Foil	stimuli/objects/foils/foil_1625.JPG	0	3#	New	1.288	0
150.5	3.5	First	stimuli/objects/setsof2/044a.jpg	44	5%	None	1.737	0
154.0	3.5	Foil	stimuli/objects/foils/foil_1559.JPG	0	3#	New	1.279	0
157.5	3.5	Lure	stimuli/objects/setsof2/146b.jpg	146	2@	Similar	1.389	1
161.0	3.5	Foil	stimuli/objects/foils/foil_1240.JPG	0	3#	New	0.737	0
164.5	3.5	Foil	stimuli/objects/foils/foil_1692.JPG	0	3#	New	0.853	0
168.0	3.5	First	stimuli/objects/setsof2/085a.jpg	85	3#	New	1.725	0
171.5	3.5	Foil	stimuli/objects/foils/foil_1456.JPG	0	5%	None	1.736	0
175.0	3.5	First	stimuli/objects/setsof2/003a.jpg	3	3#	New	0.596	0
178.5	3.5	Foil	stimuli/objects/foils/foil_1056.jpg	0	3#	New	0.738	0
182.0	3.5	Foil	stimuli/objects/foils/foil_1160.JPG	0	5%	None	1.735	0
185.5	3.5	First	stimuli/objects/setsof2/110a.jpg	110	3#	New	1.524	0
189.0	3.5	Lure	stimuli/objects/setsof2/044b.jpg	44	2@	Similar	1.331	3
192.5	3.5	Repeat	stimuli/objects/setsof2/057b.jpg	57	2@	Similar	1.036	0
196.0	3.5	Lure	stimuli/objects/setsof2/085b.jpg	85	2@	Similar	1.704	3
199.5	3.5	Foil	stimuli/objects/foils/foil_1135.JPG	0	3#	New	0.872	0
203.0	3.5	First	stimuli/objects/setsof2/034b.jpg	34	3#	New	0.982	0
206.5	3.5	Foil	stimuli/objects/foils/foil_1334.JPG	0	5%	None	1.734	0
210.0	3.5	Foil	stimuli/objects/foils/foil_1686.JPG	0	3#	New	1.008	0
213.5	3.5	First	stimuli/objects/setsof2/154b.jpg	154	3#	New	1.715	0
217.0	3.5	Repeat	stimuli/objects/setsof2/166b.jpg	166	1!	Old	1.464	0
220.5	3.5	Foil	stimuli/objects/foils/foil_1070.JPG	0	3#	New	1.146	0
224.0	3.5	First	stimuli/objects/setsof2/116a.jpg	116	3#	New	1.328	0
227.5	3.5	First	stimuli/objects/setsof2/030b.jpg	30	3#	New	0.747	0
231.0	3.5	Foil	stimuli/objects/foils/foil_1187.JPG	0	3#	New	1.045	0
234.5	3.5	First	stimuli/objects/setsof2/004b.jpg	4	3#	New	0.791	0
238.0	3.5	Repeat	stimuli/objects/setsof2/077b.jpg	77	1!	Old	1.313	0
241.5	3.5	Foil	stimuli/objects/foils/foil_1348.JPG	0	5%	None	1.732	0
245.0	3.5	First	stimuli/objects/setsof2/133a.jpg	133	3#	New	1.320	0
248.5	3.5	Lure	stimuli/objects/setsof2/181a.jpg	181	5%	None	1.732	4
252.0	3.5	Lure	stimuli/objects/setsof2/110b.jpg	110	3#	New	0.699	4
255.5	3.5	First	stimuli/objects/setsof2/126b.jpg	126	3#	New	0.701	0
259.0	3.5	Lure	stimuli/objects/setsof2/116b.jpg	116	1!	Old	1.664	4
262.5	3.5	Repeat	stimuli/objects/setsof2/132b.jpg	132	1!	Old	1.205	0
266.0	3.5	Repeat	stimuli/objects/setsof2/034b.jpg	34	1!	Old	1.545	0
269.5	3.5	First	stimuli/objects/setsof2/056b.jpg	56	3#	New	1.547	0
273.0	3.5	Lure	stimuli/objects/setsof2/042b.jpg	42	1!	Old	1.245	3
276.5	3.5	First	stimuli/objects/setsof2/112a.jpg	112	3#	New	1.566	0
280.0	3.5	Repeat	stimuli/objects/setsof2/168a.jpg	168	5%	None	1.730	0
283.5	3.5	Lure	stimuli/objects/setsof2/154a.jpg	154	2@	Similar	1.202	1
287.0	3.5	Lure	stimuli/objects/setsof2/030a.jpg	30	2@	Similar	1.629	1
290.5	3.5	First	stimuli/objects/setsof2/007b.jpg	7	2@	Similar	1.540	0
294.0	3.5	Foil	stimuli/objects/foils/foil_1020.jpg	0	3#	New	1.317	0
297.5	3.5	First	stimuli/objects/setsof2/055a.jpg	55	3#	New	0.728	0
301.0	3.5	Lure	stimuli/objects/setsof2/126a.jpg	126	3#	New	1.559	5
304.5	3.5	Lure	stimuli/objects/setsof2/056a.jpg	56	1!	Old	1.601	6
308.0	3.5	First	stimuli/objects/setsof2/080b.jpg	80	3#	New	0.641	0
311.5	3.5	Repeat	stimuli/objects/setsof2/003a.jpg	3	1!	Old	1.696	0
315.0	3.5	Repeat	stimuli/objects/setsof2/004b.jpg	4	1!	Old	1.306	0
318.5	3.5	Repeat	stimuli/objects/setsof2/133a.jpg	133	5%	None	1.727	0
322.0	3.5	Repeat	stimuli/objects/setsof2/007b.jpg	7	2@	Similar	1.010	0
325.5	3.5	Foil	stimuli/objects/foils/foil_1557.JPG	0	3#	New	0.828	0
329.0	3.5	First	stimuli/objects/setsof2/160a.jpg	160	3#	New	0.962	0
332.5	3.5	First	stimuli/objects/setsof2/075b.jpg	75	3#	New	1.194	0
336.0	3.5	Foil	stimuli/objects/foils/foil_1356.JPG	0	3#	New	1.014	0
339.5	3.5	Foil	stimuli/objects/foils/foil_1368.JPG	0	5%	None	1.727	0
343.0	3.5	Lure	stimuli/objects/setsof2/055b.jpg	55	2@	Similar	1.182	1
346.5	3.5	Lure	stimuli/objects/setsof2/112b.jpg	112	2@	Similar	1.038	1
350.0	3.5	Repeat	stimuli/objects/setsof2/080b.jpg	80	1!	Old	1.227	0
353.5	3.5	Lure	stimuli/objects/setsof2/160b.jpg	160	2@	Similar	1.072	1
357.0	3.5	Foil	stimuli/objects/foils/foil_1527.JPG	0	3#	New	0.913	0
360.5	3.5	Foil	stimuli/objects/foils/foil_1398.JPG	0	3#	New	1.687	0
364.0	3.5	Repeat	stimuli/objects/setsof2/075b.jpg	75	5%	None	1.725	0
367.5	3.5	Foil	stimuli/objects/foils/foil_1200.JPG	0	3#	New	0.761	0
371.0	3.5	Foil	stimuli/objects/foils/foil_1404.jpg	0	3#	New	0.812	0
