onset	duration	trial_type	stimulus_name	set_num	keypress	response	rt	similarity_bin
0.0	3.5	Foil	stimuli/objects/foils/foil_1433.JPG	0	3#	New	1.002	0
3.5	3.5	First	stimuli/objects/setsof2/056b.jpg	56	3#	New	0.841	0
7.0	3.5	Foil	stimuli/objects/foils/foil_1296.JPG	0	3#	New	1.573	0
10.5	3.5	Foil	stimuli/objects/foils/foil_1454.JPG	0	5%	None	1.748	0
14.0	3.5	Foil	stimuli/objects/foils/foil_1513.JPG	0	5%	None	1.748	0
17.5	3.5	First	stimuli/objects/setsof2/047a.jpg	47	5%	None	1.748	0
21.0	3.5	Foil	stimuli/objects/foils/foil_1011.jpg	0	3#	New	1.735	0
24.5	3.5	Foil	stimuli/objects/foils/foil_1473.JPG	0	5%	None	1.748	0
28.0	3.5	Foil	stimuli/objects/foils/foil_1467.JPG	0	3#	New	1.674	0
31.5	3.5	Foil	stimuli/objects/foils/foil_1600.JPG	0	5%	None	1.747	0
35.0	3.5	First	stimuli/objects/setsof2/006a.jpg	6	3#	New	1.717	0
38.5	3.5	Lure	stimuli/objects/setsof2/056a.jpg	56	2@	Similar	1.563	6
42.0	3.5	Foil	stimuli/objects/foils/foil_1337.JPG	0	3#	New	1.196	0
45.5	3.5	First	stimuli/objects/setsof2/182b.jpg	182	5%	None	1.746	0
49.0	3.5	First	stimuli/objects/setsof2/027b.jpg	27	3#	New	1.440	0
52.5	3.5	Foil	stimuli/objects/foils/foil_1282.JPG	0	3#	New	1.363	0
56.0	3.5	Foil	stimuli/objects/foils/foil_1504.JPG	0	5%	None	1.746	0
59.5	3.5	First	stimuli/objects/setsof2/090a.jpg	90	2@	Similar	1.367	0
63.0	3.5	Foil	stimuli/objects/foils/foil_1163.JPG	0	5%	None	1.745	0
66.5	3.5	First	stimuli/objects/setsof2/188b.jpg	188	3#	New	1.652	0
70.0	3.5	Lure	stimuli/objects/setsof2/027a.jpg	27	2@	Similar	1.365	6
73.5	3.5	Foil	stimuli/objects/foils/foil_1241.JPG	0	3#	New	1.148	0
77.0	3.5	Lure	stimuli/objects/setsof2/006b.jpg	6	2@	Similar	1.294	2
80.5	3.5	Foil	stimuli/objects/foils/foil_1361.JPG	0	3#	New	1.632	0
84.0	3.5	Foil	stimuli/objects/foils/foil_1595.JPG	0	3#	New	1.642	0
87.5	3.5	First	stimuli/objects/setsof2/020b.jpg	20	5%	None	1.744	0
91.0	3.5	Foil	stimuli/objects/foils/foil_1459.JPG	0	3#	New	1.724	0
94.5	3.5	Foil	stimuli/objects/foils/foil_1397.JPG	0	3#	New	1.474	0
98.0	3.5	First	stimuli/objects/setsof2/025a.jpg	25	5%	None	1.743	0
101.5	3.5	Repeat	stimuli/objects/setsof2/188b.jpg	188	1!	Old	1.378	0
105.0	3.5	Foil	stimuli/objects/foils/foil_1574.JPG	0	3#	New	0.890	0
108.5	3.5	First	stimuli/objects/setsof2/070b.jpg	70	5%	None	1.743	0
112.0	3.5	First	stimuli/objects/setsof2/019b.jpg	19	5%	None	1.743	0
115.5	3.5	Foil	stimuli/objects/foils/foil_1018.jpg	0	3#	New	1.449	0
119.0	3.5	Lure	stimuli/objects/setsof2/019a.jpg	19	5%	None	1.743	3
122.5	3.5	Repeat	stimuli/objects/setsof2/020b.jpg	20	1!	Old	1.218	0
126.0	3.5	Foil	stimuli/objects/foils/foil_1300.JPG	0	3#	New	1.236	0
129.5	3.5	First	stimuli/objects/setsof2/096a.jpg	96	3#	New	1.580	0
133.0	3.5	First	stimuli/objects/setsof2/067b.jpg	67	3#	New	1.429	0
136.5	3.5	Foil	stimuli/objects/foils/foil_1636.JPG	0	3#	New	1.376	0
140.0	3.5	Foil	stimuli/objects/foils/foil_1209.JPG	0	5%	None	1.741	0
143.5	3.5	Foil	stimuli/objects/foils/foil_1692.JPG	0	5%	None	1.741	0
147.0	3.5	First	stimuli/objects/setsof2/160a.jpg	160	5%	None	1.741	0
150.5	3.5	First	stimuli/objects/setsof2/021b.jpg	21	5%	None	1.741	0
154.0	3.5	Repeat	stimuli/objects/setsof2/047a.jpg	47	1!	Old	1.359	0
157.5	3.5	Foil	stimuli/objects/foils/foil_1062.JPG	0	3#	New	0.702	0
161.0	3.5	First	stimuli/objects/setsof2/017b.jpg	17	3#	New	1.282	0
164.5	3.5	Lure	stimuli/objects/setsof2/096b.jpg	96	1!	Old	1.145	4
168.0	3.5	Foil	stimuli/objects/foils/foil_1152.JPG	0	3#	New	0.779	0
171.5	3.5	Foil	stimuli/objects/foils/foil_1082.JPG	0	3#	New	1.666	0
175.0	3.5	First	stimuli/objects/setsof2/034b.jpg	34	3#	New	1.683	0
178.5	3.5	Foil	stimuli/objects/foils/foil_1626.JPG	0	5%	None	1.739	0
182.0	3.5	First	stimuli/objects/setsof2/022b.jpg	22	5%	None	1.739	0
185.5	3.5	Repeat	stimuli/objects/setsof2/182b.jpg	182	1!	Old	1.634	0
189.0	3.5	Lure	stimuli/objects/setsof2/067a.jpg	67	2@	Similar	1.458	4
192.5	3.5	First	stimuli/objects/setsof2/123b.jpg	123	3#	New	1.610	0
196.0	3.5	Foil	stimuli/objects/foils/foil_1076.JPG	0	3#	New	1.498	0
199.5	3.5	Lure	stimuli/objects/setsof2/090b.jpg	90	2@	Similar	1.556	3
203.0	3.5	First	stimuli/objects/setsof2/055a.jpg	55	3#	New	1.721	0
206.5	3.5	Foil	stimuli/objects/foils/foil_1518.JPG	0	5%	None	1.737	0
210.0	3.5	Foil	stimuli/objects/foils/foil_1039.JPG	0	3#	New	1.414	0
213.5	3.5	First	stimuli/objects/setsof2/114a.jpg	114	3#	New	1.208	0
217.0	3.5	Foil	stimuli/objects/foils/foil_1623.JPG	0	3#	New	1.733	0
220.5	3.5	Repeat	stimuli/objects/setsof2/022b.jpg	22	1!	Old	1.635	0
224.0	3.5	First	stimuli/objects/setsof2/186a.jpg	186	3#	New	1.438	0
227.5	3.5	Foil	stimuli/objects/foils/foil_1023.jpg	0	3#	New	1.265	0
231.0	3.5	Lure	stimuli/objects/setsof2/017a.jpg	17	2@	Similar	1.159	1
234.5	3.5	First	stimuli/objects/setsof2/002a.jpg	2	3#	New	1.112	0
238.0	3.5	Lure	stimuli/objects/setsof2/025b.jpg	25	1!	Old	1.044	4
241.5	3.5	Repeat	stimuli/objects/setsof2/021b.jpg	21	1!	Old	0.854	0
245.0	3.5	Foil	stimuli/objects/foils/foil_1069.JPG	0	3#	New	0.768	0
248.5	3.5	Repeat	stimuli/objects/setsof2/070b.jpg	70	1!	Old	1.063	0
252.0	3.5	Foil	stimuli/objects/foils/foil_1188.JPG	0	3#	New	0.819	0
255.5	3.5	First	stimuli/objects/setsof2/169a.jpg	169	3#	New	1.654	0
259.0	3.5	Lure	stimuli/objects/setsof2/186b.jpg	186	2@	Similar	1.094	3
262.5	3.5	Foil	stimuli/objects/foils/foil_1068.JPG	0	5%	None	1.734	0
266.0	3.5	First	stimuli/objects/setsof2/041a.jpg	41	3#	New	0.758	0
269.5	3.5	Repeat	stimuli/objects/setsof2/002a.jpg	2	1!	Old	0.814	0
273.0	3.5	First	stimuli/objects/setsof2/023a.jpg	23	3#	New	0.912	0
276.5	3.5	First	stimuli/objects/setsof2/078b.jpg	78	3#	New	0.980	0
280.0	3.5	Repeat	stimuli/objects/setsof2/160a.jpg	160	1!	Old	0.908	0
283.5	3.5	Lure	stimuli/objects/setsof2/114b.jpg	114	1!	Old	1.190	5
287.0	3.5	Lure	stimuli/objects/setsof2/055b.jpg	55	2@	Similar	1.118	1
290.5	3.5	Repeat	stimuli/objects/setsof2/169a.jpg	169	1!	Old	1.491	0
294.0	3.5	Foil	stimuli/objects/foils/foil_1178.JPG	0	3#	New	0.810	0
297.5	3.5	First	stimuli/objects/setsof2/036a.jpg	36	3#	New	1.266	0
301.0	3.5	Repeat	stimuli/objects/setsof2/041a.jpg	41	2@	Similar	1.104	0
304.5	3.5	Foil	stimuli/objects/foils/foil_1376.JPG	0	3#	New	0.969	0
308.0	3.5	First	stimuli/objects/setsof2/051a.jpg	51	3#	New	0.981	0
311.5	3.5	First	stimuli/objects/setsof2/102b.jpg	102	3#	New	1.032	0
315.0	3.5	Repeat	stimuli/objects/setsof2/023a.jpg	23	1!	Old	1.136	0
318.5	3.5	Lure	stimuli/objects/setsof2/034a.jpg	34	2@	Similar	1.132	2
322.0	3.5	First	stimuli/objects/setsof2/153a.jpg	153	3#	New	1.223	0
325.5	3.5	Foil	stimuli/objects/foils/foil_1280.JPG	0	3#	New	1.342	0
329.0	3.5	First	stimuli/objects/setsof2/173b.jpg	173	3#	New	0.990	0
332.5	3.5	Repeat	stimuli/objects/setsof2/123b.jpg	123	1!	Old	1.071	0
336.0	3.5	Foil	stimuli/objects/foils/foil_1155.JPG	0	3#	New	0.925	0
339.5	3.5	Foil	stimuli/objects/foils/foil_1232.JPG	0	3#	New	1.633	0
343.0	3.5	Lure	stimuli/objects/setsof2/051b.jpg	51	3#	New	0.943	2
346.5	3.5	Repeat	stimuli/objects/setsof2/078b.jpg	78	1!	Old	1.031	0
350.0	3.5	Repeat	stimuli/objects/setsof2/102b.jpg	102	1!	Old	1.538	0
353.5	3.5	Lure	stimuli/objects/setsof2/153b.jpg	153	2@	Similar	1.241	4
357.0	3.5	Foil	stimuli/objects/foils/foil_1105.jpg	0	3#	New	0.792	0
360.5	3.5	Foil	stimuli/objects/foils/foil_1545.JPG	0	3#	New	1.180	0
364.0	3.5	Repeat	stimuli/objects/setsof2/173b.jpg	173	1!	Old	1.270	0
367.5	3.5	Lure	stimuli/objects/setsof2/036b.jpg	36	1!	Old	1.030	4
371.0	3.5	Foil	stimuli/objects/foils/foil_1628.JPG	0	3#	New	0.830	0
