onset	duration	trial_type	stimulus_name	set_num	keypress	response	rt	similarity_bin
0.0	3.5	Foil	stimuli/objects/foils/foil_1595.JPG	0	3#	New	0.678	0
3.5	3.5	Foil	stimuli/objects/foils/foil_1249.JPG	0	3#	New	0.536	0
7.0	3.5	Foil	stimuli/objects/foils/foil_1079.JPG	0	3#	New	0.723	0
10.5	3.5	Foil	stimuli/objects/foils/foil_1614.JPG	0	3#	New	0.542	0
14.0	3.5	First	stimuli/objects/setsof2/019a.jpg	19	3#	New	0.779	0
17.5	3.5	Foil	stimuli/objects/foils/foil_1635.JPG	0	3#	New	0.460	0
21.0	3.5	Foil	stimuli/objects/foils/foil_1445.JPG	0	3#	New	0.649	0
24.5	3.5	First	stimuli/objects/setsof2/082a.jpg	82	3#	New	0.555	0
28.0	3.5	Foil	stimuli/objects/foils/foil_1264.JPG	0	3#	New	0.683	0
31.5	3.5	First	stimuli/objects/setsof2/179b.jpg	179	3#	New	0.892	0
35.0	3.5	First	stimuli/objects/setsof2/023b.jpg	23	3#	New	1.126	0
38.5	3.5	Foil	stimuli/objects/foils/foil_1448.JPG	0	3#	New	0.592	0
42.0	3.5	Foil	stimuli/objects/foils/foil_1246.JPG	0	3#	New	0.682	0
45.5	3.5	Repeat	stimuli/objects/setsof2/019a.jpg	19	1!	Old	1.412	0
49.0	3.5	Foil	stimuli/objects/foils/foil_1245.JPG	0	3#	New	0.711	0
52.5	3.5	First	stimuli/objects/setsof2/061a.jpg	61	5%	None	1.746	0
56.0	3.5	First	stimuli/objects/setsof2/168b.jpg	168	3#	New	0.871	0
59.5	3.5	Repeat	stimuli/objects/setsof2/082a.jpg	82	1!	Old	1.126	0
63.0	3.5	Foil	stimuli/objects/foils/foil_1070.JPG	0	3#	New	0.683	0
66.5	3.5	Foil	stimuli/objects/foils/foil_1015.jpg	0	5%	None	1.746	0
70.0	3.5	Lure	stimuli/objects/setsof2/023a.jpg	23	2@	Similar	1.439	3
73.5	3.5	First	stimuli/objects/setsof2/104b.jpg	104	3#	New	1.441	0
77.0	3.5	Foil	stimuli/objects/foils/foil_1393.JPG	0	3#	New	0.742	0
80.5	3.5	Repeat	stimuli/objects/setsof2/061a.jpg	61	1!	Old	1.106	0
84.0	3.5	Foil	stimuli/objects/foils/foil_1389.JPG	0	3#	New	0.571	0
87.5	3.5	First	stimuli/objects/setsof2/080a.jpg	80	3#	New	0.817	0
91.0	3.5	Lure	stimuli/objects/setsof2/168a.jpg	168	2@	Similar	1.267	4
94.5	3.5	First	stimuli/objects/setsof2/099b.jpg	99	3#	New	0.866	0
98.0	3.5	Foil	stimuli/objects/foils/foil_1302.JPG	0	3#	New	0.764	0
101.5	3.5	First	stimuli/objects/setsof2/039a.jpg	39	3#	New	0.613	0
105.0	3.5	Foil	stimuli/objects/foils/foil_1720.JPG	0	3#	New	0.895	0
108.5	3.5	Foil	stimuli/objects/foils/foil_1213.JPG	0	3#	New	0.811	0
112.0	3.5	First	stimuli/objects/setsof2/030b.jpg	30	3#	New	0.673	0
115.5	3.5	Foil	stimuli/objects/foils/foil_1593.jpg	0	3#	New	0.651	0
119.0	3.5	First	stimuli/objects/setsof2/141b.jpg	141	3#	New	0.645	0
122.5	3.5	Lure	stimuli/objects/setsof2/080b.jpg	80	2@	Similar	1.460	1
126.0	3.5	Repeat	stimuli/objects/setsof2/099b.jpg	99	3#	New	1.182	0
129.5	3.5	Foil	stimuli/objects/foils/foil_1388.JPG	0	3#	New	1.475	0
133.0	3.5	First	stimuli/objects/setsof2/186a.jpg	186	3#	New	0.870	0
136.5	3.5	Foil	stimuli/objects/foils/foil_1400.jpg	0	3#	New	0.573	0
140.0	3.5	Foil	stimuli/objects/foils/foil_1370.JPG	0	5%	None	1.743	0
143.5	3.5	Foil	stimuli/objects/foils/foil_1371.JPG	0	3#	New	0.682	0
147.0	3.5	First	stimuli/objects/setsof2/050a.jpg	50	3#	New	0.651	0
150.5	3.5	First	stimuli/objects/setsof2/009b.jpg	9	3#	New	0.784	0
154.0	3.5	Repeat	stimuli/objects/setsof2/179b.jpg	179	3#	New	1.600	0
157.5	3.5	Foil	stimuli/objects/foils/foil_1238.JPG	0	3#	New	0.656	0
161.0	3.5	First	stimuli/objects/setsof2/058b.jpg	58	3#	New	1.010	0
164.5	3.5	Foil	stimuli/objects/foils/foil_1399.JPG	0	3#	New	1.673	0
168.0	3.5	Foil	stimuli/objects/foils/foil_1698.JPG	0	3#	New	1.080	0
171.5	3.5	First	stimuli/objects/setsof2/043a.jpg	43	3#	New	0.792	0
175.0	3.5	Foil	stimuli/objects/foils/foil_1559.JPG	0	3#	New	0.660	0
178.5	3.5	Foil	stimuli/objects/foils/foil_1265.JPG	0	5%	None	1.741	0
182.0	3.5	First	stimuli/objects/setsof2/035b.jpg	35	3#	New	0.752	0
185.5	3.5	Lure	stimuli/objects/setsof2/050b.jpg	50	1!	Old	1.299	6
189.0	3.5	Repeat	stimuli/objects/setsof2/141b.jpg	141	1!	Old	1.013	0
192.5	3.5	Foil	stimuli/objects/foils/foil_1279.JPG	0	2@	Similar	1.293	0
196.0	3.5	First	stimuli/objects/setsof2/004a.jpg	4	3#	New	1.072	0
199.5	3.5	Foil	stimuli/objects/foils/foil_1504.JPG	0	3#	New	1.217	0
203.0	3.5	Foil	stimuli/objects/foils/foil_1096.JPG	0	3#	New	0.848	0
206.5	3.5	First	stimuli/objects/setsof2/187b.jpg	187	5%	None	1.739	0
210.0	3.5	Foil	stimuli/objects/foils/foil_1240.JPG	0	3#	New	0.776	0
213.5	3.5	Repeat	stimuli/objects/setsof2/104b.jpg	104	1!	Old	1.485	0
217.0	3.5	First	stimuli/objects/setsof2/100a.jpg	100	3#	New	0.788	0
220.5	3.5	Foil	stimuli/objects/foils/foil_1343.JPG	0	3#	New	0.857	0
224.0	3.5	First	stimuli/objects/setsof2/087b.jpg	87	3#	New	0.693	0
227.5	3.5	Foil	stimuli/objects/foils/foil_1545.JPG	0	3#	New	0.996	0
231.0	3.5	Foil	stimuli/objects/foils/foil_1077.JPG	0	3#	New	0.970	0
234.5	3.5	Repeat	stimuli/objects/setsof2/035b.jpg	35	1!	Old	1.718	0
238.0	3.5	Repeat	stimuli/objects/setsof2/039a.jpg	39	1!	Old	0.736	0
241.5	3.5	Lure	stimuli/objects/setsof2/043b.jpg	43	1!	Old	1.329	5
245.0	3.5	First	stimuli/objects/setsof2/160b.jpg	160	3#	New	0.752	0
248.5	3.5	Repeat	stimuli/objects/setsof2/030b.jpg	30	1!	Old	0.846	0
252.0	3.5	First	stimuli/objects/setsof2/182b.jpg	182	2@	Similar	1.174	0
255.5	3.5	First	stimuli/objects/setsof2/024a.jpg	24	3#	New	1.089	0
259.0	3.5	Lure	stimuli/objects/setsof2/087a.jpg	87	1!	Old	1.377	1
262.5	3.5	Foil	stimuli/objects/foils/foil_1092.JPG	0	3#	New	0.877	0
266.0	3.5	First	stimuli/objects/setsof2/070b.jpg	70	3#	New	0.805	0
269.5	3.5	Repeat	stimuli/objects/setsof2/186a.jpg	186	1!	Old	1.709	0
273.0	3.5	Lure	stimuli/objects/setsof2/187a.jpg	187	2@	Similar	1.189	1
276.5	3.5	Foil	stimuli/objects/foils/foil_1285.JPG	0	3#	New	0.598	0
280.0	3.5	Lure	stimuli/objects/setsof2/160a.jpg	160	2@	Similar	1.145	1
283.5	3.5	Lure	stimuli/objects/setsof2/100b.jpg	100	1!	Old	1.474	5
287.0	3.5	First	stimuli/objects/setsof2/133b.jpg	133	3#	New	0.748	0
290.5	3.5	Lure	stimuli/objects/setsof2/009a.jpg	9	2@	Similar	1.158	4
294.0	3.5	Foil	stimuli/objects/foils/foil_1666.JPG	0	3#	New	0.960	0
297.5	3.5	First	stimuli/objects/setsof2/169a.jpg	169	3#	New	1.313	0
301.0	3.5	Repeat	stimuli/objects/setsof2/058b.jpg	58	1!	Old	1.374	0
304.5	3.5	Repeat	stimuli/objects/setsof2/182b.jpg	182	1!	Old	1.012	0
308.0	3.5	First	stimuli/objects/setsof2/102a.jpg	102	3#	New	1.108	0
311.5	3.5	First	stimuli/objects/setsof2/125b.jpg	125	3#	New	1.050	0
315.0	3.5	Foil	stimuli/objects/foils/foil_1206.JPG	0	3#	New	1.290	0
318.5	3.5	First	stimuli/objects/setsof2/003b.jpg	3	3#	New	0.746	0
322.0	3.5	Lure	stimuli/objects/setsof2/133a.jpg	133	2@	Similar	1.166	2
325.5	3.5	Lure	stimuli/objects/setsof2/024b.jpg	24	5%	None	1.734	6
329.0	3.5	First	stimuli/objects/setsof2/054b.jpg	54	3#	New	0.726	0
332.5	3.5	Lure	stimuli/objects/setsof2/169b.jpg	169	2@	Similar	0.926	5
336.0	3.5	Lure	stimuli/objects/setsof2/004b.jpg	4	5%	None	1.733	6
339.5	3.5	Repeat	stimuli/objects/setsof2/070b.jpg	70	1!	Old	0.949	0
343.0	3.5	Foil	stimuli/objects/foils/foil_1486.JPG	0	3#	New	0.778	0
346.5	3.5	Lure	stimuli/objects/setsof2/102b.jpg	102	2@	Similar	0.926	3
350.0	3.5	Foil	stimuli/objects/foils/foil_1685.JPG	0	3#	New	0.766	0
353.5	3.5	Repeat	stimuli/objects/setsof2/003b.jpg	3	1!	Old	1.384	0
357.0	3.5	Foil	stimuli/objects/foils/foil_1110.JPG	0	3#	New	0.955	0
360.5	3.5	Foil	stimuli/objects/foils/foil_1490.JPG	0	3#	New	0.600	0
364.0	3.5	Foil	stimuli/objects/foils/foil_1416.JPG	0	3#	New	0.970	0
367.5	3.5	Repeat	stimuli/objects/setsof2/125b.jpg	125	1!	Old	1.457	0
371.0	3.5	Lure	stimuli/objects/setsof2/054a.jpg	54	2@	Similar	0.883	1
