onset	duration	trial_type	stimulus_name	set_num	keypress	response	rt	similarity_bin
0.0	3.5	Foil	stimuli/objects/foils/foil_1232.JPG	0	3#	New	0.855	0
3.5	3.5	Foil	stimuli/objects/foils/foil_1007.jpg	0	3#	New	0.615	0
7.0	3.5	Foil	stimuli/objects/foils/foil_1385.JPG	0	3#	New	0.618	0
10.5	3.5	Foil	stimuli/objects/foils/foil_1663.JPG	0	3#	New	0.667	0
14.0	3.5	First	stimuli/objects/setsof2/091a.jpg	91	3#	New	0.709	0
17.5	3.5	First	stimuli/objects/setsof2/056a.jpg	56	3#	New	0.755	0
21.0	3.5	Foil	stimuli/objects/foils/foil_1248.JPG	0	3#	New	0.542	0
24.5	3.5	First	stimuli/objects/setsof2/064b.jpg	64	3#	New	0.587	0
28.0	3.5	Foil	stimuli/objects/foils/foil_1501.JPG	0	3#	New	0.761	0
31.5	3.5	Foil	stimuli/objects/foils/foil_1353.JPG	0	3#	New	0.802	0
35.0	3.5	First	stimuli/objects/setsof2/025b.jpg	25	3#	New	0.836	0
38.5	3.5	Foil	stimuli/objects/foils/foil_1336.JPG	0	3#	New	0.776	0
42.0	3.5	Foil	stimuli/objects/foils/foil_1321.JPG	0	3#	New	0.729	0
45.5	3.5	First	stimuli/objects/setsof2/126a.jpg	126	3#	New	0.683	0
49.0	3.5	Foil	stimuli/objects/foils/foil_1383.JPG	0	3#	New	0.625	0
52.5	3.5	Lure	stimuli/objects/setsof2/091b.jpg	91	5%	None	1.742	2
56.0	3.5	First	stimuli/objects/setsof2/004a.jpg	4	3#	New	0.679	0
59.5	3.5	Foil	stimuli/objects/foils/foil_1179.JPG	0	3#	New	0.921	0
63.0	3.5	Foil	stimuli/objects/foils/foil_1143.JPG	0	3#	New	0.877	0
66.5	3.5	Foil	stimuli/objects/foils/foil_1048.JPG	0	3#	New	0.634	0
70.0	3.5	Foil	stimuli/objects/foils/foil_1089.JPG	0	3#	New	1.031	0
73.5	3.5	First	stimuli/objects/setsof2/015a.jpg	15	3#	New	0.653	0
77.0	3.5	First	stimuli/objects/setsof2/088b.jpg	88	3#	New	0.709	0
80.5	3.5	Foil	stimuli/objects/foils/foil_1298.JPG	0	5%	None	1.741	0
84.0	3.5	Lure	stimuli/objects/setsof2/126b.jpg	126	2@	Similar	1.669	5
87.5	3.5	Foil	stimuli/objects/foils/foil_1220.JPG	0	3#	New	0.875	0
91.0	3.5	Foil	stimuli/objects/foils/foil_1081.JPG	0	3#	New	0.935	0
94.5	3.5	Foil	stimuli/objects/foils/foil_1660.jpg	0	3#	New	1.031	0
98.0	3.5	First	stimuli/objects/setsof2/019a.jpg	19	3#	New	0.818	0
101.5	3.5	Foil	stimuli/objects/foils/foil_1137.JPG	0	3#	New	0.954	0
105.0	3.5	Foil	stimuli/objects/foils/foil_1356.JPG	0	3#	New	0.943	0
108.5	3.5	First	stimuli/objects/setsof2/184b.jpg	184	3#	New	1.192	0
112.0	3.5	First	stimuli/objects/setsof2/140b.jpg	140	3#	New	0.707	0
115.5	3.5	Lure	stimuli/objects/setsof2/088a.jpg	88	5%	None	1.738	3
119.0	3.5	Foil	stimuli/objects/foils/foil_1432.JPG	0	3#	New	0.914	0
122.5	3.5	Foil	stimuli/objects/foils/foil_1158.JPG	0	3#	New	0.883	0
126.0	3.5	Foil	stimuli/objects/foils/foil_1514.JPG	0	3#	New	1.035	0
129.5	3.5	First	stimuli/objects/setsof2/158b.jpg	158	3#	New	0.779	0
133.0	3.5	Lure	stimuli/objects/setsof2/019b.jpg	19	2@	Similar	1.273	3
136.5	3.5	Foil	stimuli/objects/foils/foil_1084.JPG	0	3#	New	0.867	0
140.0	3.5	First	stimuli/objects/setsof2/113b.jpg	113	3#	New	0.913	0
143.5	3.5	Repeat	stimuli/objects/setsof2/056a.jpg	56	1!	Old	0.950	0
147.0	3.5	Foil	stimuli/objects/foils/foil_1578.JPG	0	3#	New	0.955	0
150.5	3.5	First	stimuli/objects/setsof2/156a.jpg	156	3#	New	0.775	0
154.0	3.5	First	stimuli/objects/setsof2/076b.jpg	76	3#	New	1.196	0
157.5	3.5	Foil	stimuli/objects/foils/foil_1338.JPG	0	3#	New	1.286	0
161.0	3.5	First	stimuli/objects/setsof2/105a.jpg	105	3#	New	1.360	0
164.5	3.5	Lure	stimuli/objects/setsof2/064a.jpg	64	5%	None	1.736	5
168.0	3.5	Lure	stimuli/objects/setsof2/076a.jpg	76	2@	Similar	0.939	1
171.5	3.5	First	stimuli/objects/setsof2/114b.jpg	114	5%	None	1.734	0
175.0	3.5	Foil	stimuli/objects/foils/foil_1070.JPG	0	3#	New	0.703	0
178.5	3.5	Repeat	stimuli/objects/setsof2/184b.jpg	184	1!	Old	0.770	0
182.0	3.5	Repeat	stimuli/objects/setsof2/025b.jpg	25	1!	Old	0.832	0
185.5	3.5	Foil	stimuli/objects/foils/foil_1207.JPG	0	3#	New	0.773	0
189.0	3.5	Foil	stimuli/objects/foils/foil_1651.JPG	0	3#	New	1.160	0
192.5	3.5	First	stimuli/objects/setsof2/007b.jpg	7	3#	New	0.771	0
196.0	3.5	First	stimuli/objects/setsof2/134b.jpg	134	3#	New	0.717	0
199.5	3.5	Repeat	stimuli/objects/setsof2/158b.jpg	158	1!	Old	0.811	0
203.0	3.5	First	stimuli/objects/setsof2/161b.jpg	161	3#	New	0.828	0
206.5	3.5	Repeat	stimuli/objects/setsof2/004a.jpg	4	1!	Old	1.665	0
210.0	3.5	Lure	stimuli/objects/setsof2/015b.jpg	15	2@	Similar	1.063	2
213.5	3.5	First	stimuli/objects/setsof2/082a.jpg	82	3#	New	0.663	0
217.0	3.5	Foil	stimuli/objects/foils/foil_1316.JPG	0	3#	New	0.769	0
220.5	3.5	Foil	stimuli/objects/foils/foil_1506.JPG	0	3#	New	1.073	0
224.0	3.5	First	stimuli/objects/setsof2/157b.jpg	157	3#	New	0.823	0
227.5	3.5	Lure	stimuli/objects/setsof2/140a.jpg	140	1!	Old	1.554	6
231.0	3.5	Repeat	stimuli/objects/setsof2/113b.jpg	113	1!	Old	0.751	0
234.5	3.5	Repeat	stimuli/objects/setsof2/105a.jpg	105	1!	Old	0.862	0
238.0	3.5	Lure	stimuli/objects/setsof2/161a.jpg	161	1!	Old	1.293	4
241.5	3.5	Repeat	stimuli/objects/setsof2/114b.jpg	114	1!	Old	1.072	0
245.0	3.5	First	stimuli/objects/setsof2/037a.jpg	37	3#	New	0.724	0
248.5	3.5	Lure	stimuli/objects/setsof2/082b.jpg	82	2@	Similar	1.641	1
252.0	3.5	First	stimuli/objects/setsof2/102a.jpg	102	3#	New	1.067	0
255.5	3.5	First	stimuli/objects/setsof2/086a.jpg	86	3#	New	1.032	0
259.0	3.5	Repeat	stimuli/objects/setsof2/157b.jpg	157	1!	Old	1.215	0
262.5	3.5	Foil	stimuli/objects/foils/foil_1344.JPG	0	3#	New	1.074	0
266.0	3.5	First	stimuli/objects/setsof2/070a.jpg	70	3#	New	1.443	0
269.5	3.5	Repeat	stimuli/objects/setsof2/037a.jpg	37	1!	Old	0.850	0
273.0	3.5	Foil	stimuli/objects/foils/foil_1147.JPG	0	3#	New	0.845	0
276.5	3.5	First	stimuli/objects/setsof2/040b.jpg	40	3#	New	0.845	0
280.0	3.5	Repeat	stimuli/objects/setsof2/102a.jpg	102	1!	Old	1.176	0
283.5	3.5	Repeat	stimuli/objects/setsof2/007b.jpg	7	1!	Old	1.065	0
287.0	3.5	Foil	stimuli/objects/foils/foil_1443.JPG	0	3#	New	1.251	0
290.5	3.5	Repeat	stimuli/objects/setsof2/156a.jpg	156	3#	New	1.349	0
294.0	3.5	Foil	stimuli/objects/foils/foil_1636.JPG	0	3#	New	1.165	0
297.5	3.5	First	stimuli/objects/setsof2/183b.jpg	183	3#	New	1.067	0
301.0	3.5	First	stimuli/objects/setsof2/110b.jpg	110	3#	New	1.154	0
304.5	3.5	Foil	stimuli/objects/foils/foil_1708.JPG	0	3#	New	1.195	0
308.0	3.5	Lure	stimuli/objects/setsof2/070b.jpg	70	2@	Similar	1.438	5
311.5	3.5	Repeat	stimuli/objects/setsof2/040b.jpg	40	1!	Old	0.997	0
315.0	3.5	Foil	stimuli/objects/foils/foil_1410.JPG	0	3#	New	1.114	0
318.5	3.5	First	stimuli/objects/setsof2/138b.jpg	138	3#	New	1.508	0
322.0	3.5	Repeat	stimuli/objects/setsof2/134b.jpg	134	1!	Old	0.889	0
325.5	3.5	First	stimuli/objects/setsof2/139a.jpg	139	3#	New	1.335	0
329.0	3.5	Lure	stimuli/objects/setsof2/086b.jpg	86	2@	Similar	1.681	2
332.5	3.5	Lure	stimuli/objects/setsof2/183a.jpg	183	1!	Old	0.844	6
336.0	3.5	Foil	stimuli/objects/foils/foil_1251.JPG	0	3#	New	0.904	0
339.5	3.5	First	stimuli/objects/setsof2/159a.jpg	159	3#	New	1.194	0
343.0	3.5	Lure	stimuli/objects/setsof2/139b.jpg	139	1!	Old	1.363	5
346.5	3.5	Foil	stimuli/objects/foils/foil_1572.JPG	0	5%	None	1.724	0
350.0	3.5	Foil	stimuli/objects/foils/foil_1707.JPG	0	3#	New	0.710	0
353.5	3.5	Foil	stimuli/objects/foils/foil_1475.JPG	0	3#	New	0.657	0
357.0	3.5	Lure	stimuli/objects/setsof2/110a.jpg	110	5%	None	1.724	4
360.5	3.5	Foil	stimuli/objects/foils/foil_1219.JPG	0	3#	New	1.675	0
364.0	3.5	Repeat	stimuli/objects/setsof2/159a.jpg	159	1!	Old	0.874	0
367.5	3.5	Foil	stimuli/objects/foils/foil_1683.JPG	0	3#	New	0.825	0
371.0	3.5	Lure	stimuli/objects/setsof2/138a.jpg	138	5%	None	1.724	2
