onset	duration	trial_type	stimulus_name	set_num	keypress	response	rt	similarity_bin
0.0	3.5	Foil	stimuli/objects/foils/foil_1098.JPG	0	3#	New	0.997	0
3.5	3.5	Foil	stimuli/objects/foils/foil_1540.JPG	0	3#	New	0.891	0
7.0	3.5	Foil	stimuli/objects/foils/foil_1291.JPG	0	3#	New	0.715	0
10.5	3.5	Foil	stimuli/objects/foils/foil_1669.JPG	0	3#	New	0.821	0
14.0	3.5	First	stimuli/objects/setsof2/161a.jpg	161	3#	New	0.740	0
17.5	3.5	Foil	stimuli/objects/foils/foil_1543.JPG	0	5%	None	1.747	0
21.0	3.5	First	stimuli/objects/setsof2/009b.jpg	9	3#	New	0.870	0
24.5	3.5	First	stimuli/objects/setsof2/148b.jpg	148	3#	New	0.635	0
28.0	3.5	Foil	stimuli/objects/foils/foil_1427.JPG	0	3#	New	0.977	0
31.5	3.5	Foil	stimuli/objects/foils/foil_1562.JPG	0	3#	New	0.856	0
35.0	3.5	Foil	stimuli/objects/foils/foil_1471.JPG	0	3#	New	0.713	0
38.5	3.5	Repeat	stimuli/objects/setsof2/161a.jpg	161	1!	Old	1.359	0
42.0	3.5	First	stimuli/objects/setsof2/190a.jpg	190	3#	New	0.969	0
45.5	3.5	Foil	stimuli/objects/foils/foil_1505.JPG	0	3#	New	1.038	0
49.0	3.5	Lure	stimuli/objects/setsof2/009a.jpg	9	5%	None	1.746	4
52.5	3.5	Foil	stimuli/objects/foils/foil_1021.jpg	0	3#	New	0.949	0
56.0	3.5	First	stimuli/objects/setsof2/090b.jpg	90	3#	New	0.965	0
59.5	3.5	First	stimuli/objects/setsof2/052b.jpg	52	3#	New	1.106	0
63.0	3.5	Repeat	stimuli/objects/setsof2/148b.jpg	148	1!	Old	1.156	0
66.5	3.5	First	stimuli/objects/setsof2/110b.jpg	110	3#	New	1.024	0
70.0	3.5	Foil	stimuli/objects/foils/foil_1531.JPG	0	3#	New	1.460	0
73.5	3.5	Foil	stimuli/objects/foils/foil_1185.JPG	0	3#	New	0.892	0
77.0	3.5	First	stimuli/objects/setsof2/048b.jpg	48	3#	New	0.906	0
80.5	3.5	Repeat	stimuli/objects/setsof2/190a.jpg	190	1!	Old	1.379	0
84.0	3.5	Repeat	stimuli/objects/setsof2/090b.jpg	90	1!	Old	1.236	0
87.5	3.5	Foil	stimuli/objects/foils/foil_1378.JPG	0	3#	New	0.939	0
91.0	3.5	First	stimuli/objects/setsof2/036b.jpg	36	3#	New	1.028	0
94.5	3.5	Foil	stimuli/objects/foils/foil_1269.JPG	0	3#	New	1.505	0
98.0	3.5	First	stimuli/objects/setsof2/032b.jpg	32	5%	None	1.743	0
101.5	3.5	Repeat	stimuli/objects/setsof2/110b.jpg	110	5%	None	1.743	0
105.0	3.5	Foil	stimuli/objects/foils/foil_1647.JPG	0	3#	New	1.735	0
108.5	3.5	Foil	stimuli/objects/foils/foil_1048.JPG	0	3#	New	0.928	0
112.0	3.5	Repeat	stimuli/objects/setsof2/048b.jpg	48	5%	None	1.743	0
115.5	3.5	First	stimuli/objects/setsof2/104a.jpg	104	3#	New	1.027	0
119.0	3.5	First	stimuli/objects/setsof2/099b.jpg	99	5%	None	1.743	0
122.5	3.5	Foil	stimuli/objects/foils/foil_1220.JPG	0	3#	New	1.028	0
126.0	3.5	Foil	stimuli/objects/foils/foil_1443.JPG	0	3#	New	0.881	0
129.5	3.5	First	stimuli/objects/setsof2/157a.jpg	157	3#	New	0.744	0
133.0	3.5	Foil	stimuli/objects/foils/foil_1442.JPG	0	3#	New	0.847	0
136.5	3.5	Foil	stimuli/objects/foils/foil_1295.JPG	0	3#	New	0.862	0
140.0	3.5	First	stimuli/objects/setsof2/087b.jpg	87	3#	New	1.588	0
143.5	3.5	Foil	stimuli/objects/foils/foil_1200.JPG	0	3#	New	1.453	0
147.0	3.5	Foil	stimuli/objects/foils/foil_1491.jpg	0	5%	None	1.741	0
150.5	3.5	Foil	stimuli/objects/foils/foil_1037.JPG	0	5%	None	1.741	0
154.0	3.5	Foil	stimuli/objects/foils/foil_1717.JPG	0	3#	New	0.861	0
157.5	3.5	Foil	stimuli/objects/foils/foil_1498.JPG	0	5%	None	1.741	0
161.0	3.5	First	stimuli/objects/setsof2/117a.jpg	117	3#	New	1.147	0
164.5	3.5	Repeat	stimuli/objects/setsof2/157a.jpg	157	5%	None	1.741	0
168.0	3.5	First	stimuli/objects/setsof2/155a.jpg	155	3#	New	1.656	0
171.5	3.5	Foil	stimuli/objects/foils/foil_1306.JPG	0	3#	New	1.270	0
175.0	3.5	First	stimuli/objects/setsof2/073a.jpg	73	3#	New	1.353	0
178.5	3.5	Lure	stimuli/objects/setsof2/087a.jpg	87	5%	None	1.739	1
182.0	3.5	Foil	stimuli/objects/foils/foil_1314.JPG	0	3#	New	0.936	0
185.5	3.5	First	stimuli/objects/setsof2/091a.jpg	91	3#	New	1.143	0
189.0	3.5	Foil	stimuli/objects/foils/foil_1273.JPG	0	3#	New	1.604	0
192.5	3.5	First	stimuli/objects/setsof2/076a.jpg	76	3#	New	1.350	0
196.0	3.5	Lure	stimuli/objects/setsof2/052a.jpg	52	5%	None	1.739	4
199.5	3.5	Foil	stimuli/objects/foils/foil_1431.JPG	0	3#	New	1.700	0
203.0	3.5	First	stimuli/objects/setsof2/130b.jpg	130	5%	None	1.739	0
206.5	3.5	Foil	stimuli/objects/foils/foil_1086.JPG	0	3#	New	1.039	0
210.0	3.5	Foil	stimuli/objects/foils/foil_1228.JPG	0	3#	New	0.769	0
213.5	3.5	First	stimuli/objects/setsof2/160b.jpg	160	3#	New	0.826	0
217.0	3.5	Foil	stimuli/objects/foils/foil_1353.JPG	0	3#	New	1.062	0
220.5	3.5	Foil	stimuli/objects/foils/foil_1032.JPG	0	3#	New	0.895	0
224.0	3.5	Foil	stimuli/objects/foils/foil_1117.JPG	0	3#	New	0.872	0
227.5	3.5	Repeat	stimuli/objects/setsof2/036b.jpg	36	1!	Old	1.396	0
231.0	3.5	Repeat	stimuli/objects/setsof2/155a.jpg	155	1!	Old	1.352	0
234.5	3.5	First	stimuli/objects/setsof2/163b.jpg	163	3#	New	1.070	0
238.0	3.5	First	stimuli/objects/setsof2/121b.jpg	121	3#	New	1.050	0
241.5	3.5	Foil	stimuli/objects/foils/foil_1302.JPG	0	3#	New	0.908	0
245.0	3.5	First	stimuli/objects/setsof2/026a.jpg	26	3#	New	0.884	0
248.5	3.5	Repeat	stimuli/objects/setsof2/032b.jpg	32	1!	Old	1.726	0
252.0	3.5	Foil	stimuli/objects/foils/foil_1105.jpg	0	3#	New	0.925	0
255.5	3.5	First	stimuli/objects/setsof2/126b.jpg	126	3#	New	1.489	0
259.0	3.5	Lure	stimuli/objects/setsof2/099a.jpg	99	1!	Old	1.589	6
262.5	3.5	Lure	stimuli/objects/setsof2/076b.jpg	76	5%	None	1.735	1
266.0	3.5	First	stimuli/objects/setsof2/044b.jpg	44	3#	New	1.163	0
269.5	3.5	Lure	stimuli/objects/setsof2/121a.jpg	121	1!	Old	1.356	6
273.0	3.5	Lure	stimuli/objects/setsof2/130a.jpg	130	2@	Similar	1.464	5
276.5	3.5	Lure	stimuli/objects/setsof2/104b.jpg	104	1!	Old	1.662	3
280.0	3.5	Repeat	stimuli/objects/setsof2/026a.jpg	26	1!	Old	1.648	0
283.5	3.5	Lure	stimuli/objects/setsof2/160a.jpg	160	2@	Similar	1.377	1
287.0	3.5	First	stimuli/objects/setsof2/034b.jpg	34	3#	New	1.571	0
290.5	3.5	Repeat	stimuli/objects/setsof2/117a.jpg	117	1!	Old	1.616	0
294.0	3.5	Lure	stimuli/objects/setsof2/163a.jpg	163	2@	Similar	1.523	5
297.5	3.5	First	stimuli/objects/setsof2/153a.jpg	153	3#	New	1.533	0
301.0	3.5	First	stimuli/objects/setsof2/122a.jpg	122	5%	None	1.733	0
304.5	3.5	Foil	stimuli/objects/foils/foil_1376.JPG	0	3#	New	1.075	0
308.0	3.5	First	stimuli/objects/setsof2/159a.jpg	159	3#	New	0.757	0
311.5	3.5	Repeat	stimuli/objects/setsof2/044b.jpg	44	1!	Old	1.330	0
315.0	3.5	Foil	stimuli/objects/foils/foil_1390.JPG	0	3#	New	0.732	0
318.5	3.5	First	stimuli/objects/setsof2/053a.jpg	53	3#	New	0.591	0
322.0	3.5	Lure	stimuli/objects/setsof2/091b.jpg	91	2@	Similar	1.527	2
325.5	3.5	Repeat	stimuli/objects/setsof2/126b.jpg	126	1!	Old	1.231	0
329.0	3.5	Repeat	stimuli/objects/setsof2/073a.jpg	73	3#	New	0.905	0
332.5	3.5	Lure	stimuli/objects/setsof2/122b.jpg	122	1!	Old	1.690	3
336.0	3.5	Foil	stimuli/objects/foils/foil_1475.JPG	0	3#	New	1.402	0
339.5	3.5	First	stimuli/objects/setsof2/143b.jpg	143	3#	New	1.592	0
343.0	3.5	Lure	stimuli/objects/setsof2/159b.jpg	159	2@	Similar	1.376	5
346.5	3.5	Foil	stimuli/objects/foils/foil_1511.JPG	0	3#	New	1.021	0
350.0	3.5	Lure	stimuli/objects/setsof2/034a.jpg	34	5%	None	1.731	2
353.5	3.5	Foil	stimuli/objects/foils/foil_1253.JPG	0	3#	New	1.320	0
357.0	3.5	Repeat	stimuli/objects/setsof2/153a.jpg	153	1!	Old	1.304	0
360.5	3.5	Lure	stimuli/objects/setsof2/053b.jpg	53	1!	Old	1.236	4
364.0	3.5	Foil	stimuli/objects/foils/foil_1383.JPG	0	3#	New	1.155	0
367.5	3.5	Lure	stimuli/objects/setsof2/143a.jpg	143	1!	Old	1.216	4
371.0	3.5	Foil	stimuli/objects/foils/foil_1055.JPG	0	3#	New	1.060	0
