onset	duration	trial_type	stimulus_name	set_num	keypress	response	rt	similarity_bin
0.0	3.5	Foil	stimuli/objects/foils/foil_1318.JPG	0	3#	New	0.829	0
3.5	3.5	First	stimuli/objects/setsof2/095b.jpg	95	3#	New	1.030	0
7.0	3.5	Foil	stimuli/objects/foils/foil_1642.JPG	0	3#	New	0.969	0
10.5	3.5	Foil	stimuli/objects/foils/foil_1251.JPG	0	3#	New	0.893	0
14.0	3.5	First	stimuli/objects/setsof2/002a.jpg	2	3#	New	0.607	0
17.5	3.5	Foil	stimuli/objects/foils/foil_1347.JPG	0	3#	New	0.892	0
21.0	3.5	Foil	stimuli/objects/foils/foil_1276.JPG	0	3#	New	0.969	0
24.5	3.5	Foil	stimuli/objects/foils/foil_1047.JPG	0	3#	New	0.886	0
28.0	3.5	Foil	stimuli/objects/foils/foil_1575.JPG	0	3#	New	1.104	0
31.5	3.5	First	stimuli/objects/setsof2/074a.jpg	74	3#	New	0.869	0
35.0	3.5	First	stimuli/objects/setsof2/142a.jpg	142	3#	New	0.964	0
38.5	3.5	Foil	stimuli/objects/foils/foil_1496.JPG	0	3#	New	0.926	0
42.0	3.5	Foil	stimuli/objects/foils/foil_1409.JPG	0	3#	New	0.934	0
45.5	3.5	First	stimuli/objects/setsof2/160a.jpg	160	3#	New	0.918	0
49.0	3.5	Repeat	stimuli/objects/setsof2/002a.jpg	2	1!	Old	1.093	0
52.5	3.5	Foil	stimuli/objects/foils/foil_1335.JPG	0	3#	New	0.980	0
56.0	3.5	Foil	stimuli/objects/foils/foil_1022.jpg	0	1!	Old	1.025	0
59.5	3.5	Repeat	stimuli/objects/setsof2/074a.jpg	74	1!	Old	0.902	0
63.0	3.5	Foil	stimuli/objects/foils/foil_1532.JPG	0	3#	New	0.870	0
66.5	3.5	First	stimuli/objects/setsof2/090b.jpg	90	3#	New	1.004	0
70.0	3.5	Lure	stimuli/objects/setsof2/142b.jpg	142	1!	Old	0.927	5
73.5	3.5	First	stimuli/objects/setsof2/192a.jpg	192	3#	New	0.909	0
77.0	3.5	First	stimuli/objects/setsof2/180b.jpg	180	3#	New	1.118	0
80.5	3.5	Foil	stimuli/objects/foils/foil_1499.JPG	0	3#	New	1.056	0
84.0	3.5	Foil	stimuli/objects/foils/foil_1057.JPG	0	3#	New	0.978	0
87.5	3.5	First	stimuli/objects/setsof2/057b.jpg	57	3#	New	0.959	0
91.0	3.5	Foil	stimuli/objects/foils/foil_1127.JPG	0	3#	New	1.037	0
94.5	3.5	Foil	stimuli/objects/foils/foil_1518.JPG	0	3#	New	1.169	0
98.0	3.5	First	stimuli/objects/setsof2/008b.jpg	8	3#	New	0.814	0
101.5	3.5	Foil	stimuli/objects/foils/foil_1511.JPG	0	3#	New	0.860	0
105.0	3.5	Foil	stimuli/objects/foils/foil_1597.JPG	0	3#	New	1.063	0
108.5	3.5	First	stimuli/objects/setsof2/096a.jpg	96	3#	New	1.014	0
112.0	3.5	Foil	stimuli/objects/foils/foil_1667.JPG	0	3#	New	0.932	0
115.5	3.5	Foil	stimuli/objects/foils/foil_1602.JPG	0	3#	New	0.662	0
119.0	3.5	First	stimuli/objects/setsof2/044b.jpg	44	3#	New	0.862	0
122.5	3.5	Repeat	stimuli/objects/setsof2/057b.jpg	57	1!	Old	1.036	0
126.0	3.5	Foil	stimuli/objects/foils/foil_1516.JPG	0	3#	New	0.893	0
129.5	3.5	Foil	stimuli/objects/foils/foil_1146.JPG	0	3#	New	0.930	0
133.0	3.5	First	stimuli/objects/setsof2/080a.jpg	80	3#	New	0.773	0
136.5	3.5	Foil	stimuli/objects/foils/foil_1062.JPG	0	3#	New	0.832	0
140.0	3.5	Lure	stimuli/objects/setsof2/008a.jpg	8	2@	Similar	1.216	3
143.5	3.5	Repeat	stimuli/objects/setsof2/095b.jpg	95	1!	Old	1.117	0
147.0	3.5	Foil	stimuli/objects/foils/foil_1415.JPG	0	3#	New	0.991	0
150.5	3.5	First	stimuli/objects/setsof2/042a.jpg	42	3#	New	1.251	0
154.0	3.5	Lure	stimuli/objects/setsof2/044a.jpg	44	5%	None	1.737	3
157.5	3.5	Foil	stimuli/objects/foils/foil_1179.JPG	0	2@	Similar	1.068	0
161.0	3.5	First	stimuli/objects/setsof2/129a.jpg	129	3#	New	1.603	0
164.5	3.5	Foil	stimuli/objects/foils/foil_1668.jpg	0	3#	New	0.923	0
168.0	3.5	Foil	stimuli/objects/foils/foil_1122.JPG	0	3#	New	0.803	0
171.5	3.5	First	stimuli/objects/setsof2/114a.jpg	114	3#	New	1.045	0
175.0	3.5	Foil	stimuli/objects/foils/foil_1486.JPG	0	3#	New	1.167	0
178.5	3.5	Lure	stimuli/objects/setsof2/096b.jpg	96	2@	Similar	1.493	4
182.0	3.5	First	stimuli/objects/setsof2/188b.jpg	188	3#	New	0.785	0
185.5	3.5	First	stimuli/objects/setsof2/106a.jpg	106	3#	New	0.815	0
189.0	3.5	Foil	stimuli/objects/foils/foil_1001.jpg	0	3#	New	0.821	0
192.5	3.5	First	stimuli/objects/setsof2/122a.jpg	122	3#	New	1.175	0
196.0	3.5	Repeat	stimuli/objects/setsof2/160a.jpg	160	1!	Old	0.986	0
199.5	3.5	Foil	stimuli/objects/foils/foil_1018.jpg	0	3#	New	1.058	0
203.0	3.5	First	stimuli/objects/setsof2/112b.jpg	112	3#	New	0.938	0
206.5	3.5	Lure	stimuli/objects/setsof2/192b.jpg	192	2@	Similar	1.194	2
210.0	3.5	Repeat	stimuli/objects/setsof2/090b.jpg	90	1!	Old	1.280	0
213.5	3.5	First	stimuli/objects/setsof2/132b.jpg	132	3#	New	0.966	0
217.0	3.5	Repeat	stimuli/objects/setsof2/180b.jpg	180	1!	Old	1.102	0
220.5	3.5	Foil	stimuli/objects/foils/foil_1514.JPG	0	3#	New	0.929	0
224.0	3.5	First	stimuli/objects/setsof2/081b.jpg	81	3#	New	1.044	0
227.5	3.5	Foil	stimuli/objects/foils/foil_1334.JPG	0	3#	New	0.763	0
231.0	3.5	Repeat	stimuli/objects/setsof2/106a.jpg	106	1!	Old	1.232	0
234.5	3.5	Lure	stimuli/objects/setsof2/042b.jpg	42	2@	Similar	1.228	3
238.0	3.5	Lure	stimuli/objects/setsof2/112a.jpg	112	2@	Similar	0.998	1
241.5	3.5	Repeat	stimuli/objects/setsof2/114a.jpg	114	1!	Old	1.094	0
245.0	3.5	First	stimuli/objects/setsof2/118a.jpg	118	3#	New	1.239	0
248.5	3.5	Lure	stimuli/objects/setsof2/132a.jpg	132	2@	Similar	1.375	3
252.0	3.5	Repeat	stimuli/objects/setsof2/188b.jpg	188	1!	Old	1.073	0
255.5	3.5	First	stimuli/objects/setsof2/185a.jpg	185	3#	New	1.400	0
259.0	3.5	First	stimuli/objects/setsof2/001b.jpg	1	3#	New	0.875	0
262.5	3.5	Foil	stimuli/objects/foils/foil_1342.JPG	0	3#	New	1.092	0
266.0	3.5	First	stimuli/objects/setsof2/156b.jpg	156	3#	New	0.913	0
269.5	3.5	Repeat	stimuli/objects/setsof2/081b.jpg	81	1!	Old	1.057	0
273.0	3.5	Foil	stimuli/objects/foils/foil_1339.JPG	0	3#	New	1.090	0
276.5	3.5	Repeat	stimuli/objects/setsof2/080a.jpg	80	1!	Old	1.049	0
280.0	3.5	First	stimuli/objects/setsof2/102a.jpg	102	2@	Similar	1.491	0
283.5	3.5	Lure	stimuli/objects/setsof2/129b.jpg	129	2@	Similar	1.306	4
287.0	3.5	First	stimuli/objects/setsof2/019a.jpg	19	3#	New	1.063	0
290.5	3.5	Foil	stimuli/objects/foils/foil_1413.JPG	0	3#	New	1.119	0
294.0	3.5	Foil	stimuli/objects/foils/foil_1174.JPG	0	3#	New	0.793	0
297.5	3.5	Lure	stimuli/objects/setsof2/185b.jpg	185	5%	None	1.729	1
301.0	3.5	First	stimuli/objects/setsof2/020b.jpg	20	3#	New	1.068	0
304.5	3.5	Lure	stimuli/objects/setsof2/118b.jpg	118	1!	Old	1.154	6
308.0	3.5	First	stimuli/objects/setsof2/171b.jpg	171	3#	New	1.023	0
311.5	3.5	Repeat	stimuli/objects/setsof2/102a.jpg	102	1!	Old	1.310	0
315.0	3.5	Lure	stimuli/objects/setsof2/001a.jpg	1	1!	Old	1.059	3
318.5	3.5	Lure	stimuli/objects/setsof2/156a.jpg	156	2@	Similar	1.274	5
322.0	3.5	Repeat	stimuli/objects/setsof2/019a.jpg	19	1!	Old	1.420	0
325.5	3.5	Foil	stimuli/objects/foils/foil_1411.JPG	0	3#	New	1.218	0
329.0	3.5	First	stimuli/objects/setsof2/045b.jpg	45	3#	New	1.130	0
332.5	3.5	Repeat	stimuli/objects/setsof2/122a.jpg	122	1!	Old	1.230	0
336.0	3.5	First	stimuli/objects/setsof2/022b.jpg	22	2@	Similar	1.135	0
339.5	3.5	Foil	stimuli/objects/foils/foil_1711.JPG	0	3#	New	0.934	0
343.0	3.5	Foil	stimuli/objects/foils/foil_1449.JPG	0	3#	New	1.277	0
346.5	3.5	Foil	stimuli/objects/foils/foil_1061.JPG	0	3#	New	1.207	0
350.0	3.5	Foil	stimuli/objects/foils/foil_1694.jpg	0	3#	New	1.129	0
353.5	3.5	Lure	stimuli/objects/setsof2/171a.jpg	171	5%	None	1.725	2
357.0	3.5	Repeat	stimuli/objects/setsof2/045b.jpg	45	1!	Old	1.084	0
360.5	3.5	Foil	stimuli/objects/foils/foil_1237.JPG	0	1!	Old	0.956	0
364.0	3.5	Foil	stimuli/objects/foils/foil_1685.JPG	0	3#	New	0.973	0
367.5	3.5	Lure	stimuli/objects/setsof2/020a.jpg	20	5%	None	1.724	6
371.0	3.5	Lure	stimuli/objects/setsof2/022a.jpg	22	1!	Old	1.484	5
