onset	duration	trial_type	stimulus_name	set_num	keypress	response	rt	similarity_bin
0.0	3.5	Foil	stimuli/objects/foils/foil_1015.jpg	0	3#	New	0.818	0
3.5	3.5	First	stimuli/objects/setsof2/173b.jpg	173	3#	New	0.997	0
7.0	3.5	Foil	stimuli/objects/foils/foil_1499.JPG	0	3#	New	1.152	0
10.5	3.5	Foil	stimuli/objects/foils/foil_1383.JPG	0	3#	New	0.869	0
14.0	3.5	Foil	stimuli/objects/foils/foil_1311.JPG	0	3#	New	0.832	0
17.5	3.5	Foil	stimuli/objects/foils/foil_1201.JPG	0	3#	New	0.902	0
21.0	3.5	Foil	stimuli/objects/foils/foil_1463.JPG	0	3#	New	0.958	0
24.5	3.5	First	stimuli/objects/setsof2/061b.jpg	61	3#	New	0.830	0
28.0	3.5	First	stimuli/objects/setsof2/145a.jpg	145	3#	New	0.794	0
31.5	3.5	Foil	stimuli/objects/foils/foil_1221.JPG	0	3#	New	0.858	0
35.0	3.5	First	stimuli/objects/setsof2/032a.jpg	32	3#	New	0.770	0
38.5	3.5	Lure	stimuli/objects/setsof2/173a.jpg	173	2@	Similar	1.465	1
42.0	3.5	Foil	stimuli/objects/foils/foil_1364.JPG	0	3#	New	0.949	0
45.5	3.5	Foil	stimuli/objects/foils/foil_1572.JPG	0	3#	New	0.938	0
49.0	3.5	Foil	stimuli/objects/foils/foil_1714.JPG	0	3#	New	0.748	0
52.5	3.5	Foil	stimuli/objects/foils/foil_1197.JPG	0	3#	New	0.873	0
56.0	3.5	First	stimuli/objects/setsof2/190b.jpg	190	3#	New	0.780	0
59.5	3.5	First	stimuli/objects/setsof2/119a.jpg	119	3#	New	0.785	0
63.0	3.5	Repeat	stimuli/objects/setsof2/061b.jpg	61	1!	Old	1.210	0
66.5	3.5	First	stimuli/objects/setsof2/171a.jpg	171	3#	New	0.785	0
70.0	3.5	Lure	stimuli/objects/setsof2/032b.jpg	32	3#	New	0.970	4
73.5	3.5	Foil	stimuli/objects/foils/foil_1573.JPG	0	3#	New	0.922	0
77.0	3.5	Foil	stimuli/objects/foils/foil_1412.JPG	0	3#	New	0.853	0
80.5	3.5	Lure	stimuli/objects/setsof2/119b.jpg	119	1!	Old	1.189	5
84.0	3.5	Foil	stimuli/objects/foils/foil_1678.JPG	0	3#	New	0.806	0
87.5	3.5	First	stimuli/objects/setsof2/118a.jpg	118	3#	New	0.836	0
91.0	3.5	Lure	stimuli/objects/setsof2/190a.jpg	190	2@	Similar	1.228	3
94.5	3.5	Foil	stimuli/objects/foils/foil_1232.JPG	0	3#	New	0.973	0
98.0	3.5	First	stimuli/objects/setsof2/139a.jpg	139	3#	New	0.856	0
101.5	3.5	First	stimuli/objects/setsof2/146a.jpg	146	3#	New	0.874	0
105.0	3.5	Foil	stimuli/objects/foils/foil_1228.JPG	0	3#	New	1.054	0
108.5	3.5	First	stimuli/objects/setsof2/169a.jpg	169	3#	New	1.463	0
112.0	3.5	Repeat	stimuli/objects/setsof2/171a.jpg	171	1!	Old	1.154	0
115.5	3.5	Lure	stimuli/objects/setsof2/146b.jpg	146	2@	Similar	1.492	1
119.0	3.5	First	stimuli/objects/setsof2/178b.jpg	178	3#	New	0.760	0
122.5	3.5	Lure	stimuli/objects/setsof2/118b.jpg	118	1!	Old	1.036	6
126.0	3.5	Foil	stimuli/objects/foils/foil_1205.JPG	0	3#	New	0.753	0
129.5	3.5	Foil	stimuli/objects/foils/foil_1455.JPG	0	3#	New	0.996	0
133.0	3.5	Foil	stimuli/objects/foils/foil_1443.JPG	0	3#	New	0.823	0
136.5	3.5	Foil	stimuli/objects/foils/foil_1562.JPG	0	3#	New	1.397	0
140.0	3.5	First	stimuli/objects/setsof2/133a.jpg	133	2@	Similar	1.097	0
143.5	3.5	Repeat	stimuli/objects/setsof2/169a.jpg	169	1!	Old	1.161	0
147.0	3.5	First	stimuli/objects/setsof2/077a.jpg	77	3#	New	0.848	0
150.5	3.5	First	stimuli/objects/setsof2/089b.jpg	89	3#	New	1.023	0
154.0	3.5	Foil	stimuli/objects/foils/foil_1695.JPG	0	3#	New	1.105	0
157.5	3.5	Foil	stimuli/objects/foils/foil_1011.jpg	0	3#	New	0.909	0
161.0	3.5	First	stimuli/objects/setsof2/100a.jpg	100	3#	New	1.013	0
164.5	3.5	Foil	stimuli/objects/foils/foil_1269.JPG	0	2@	Similar	1.705	0
168.0	3.5	Foil	stimuli/objects/foils/foil_1020.jpg	0	3#	New	0.839	0
171.5	3.5	Repeat	stimuli/objects/setsof2/145a.jpg	145	2@	Similar	1.195	0
175.0	3.5	Foil	stimuli/objects/foils/foil_1717.JPG	0	3#	New	0.984	0
178.5	3.5	Foil	stimuli/objects/foils/foil_1467.JPG	0	3#	New	0.985	0
182.0	3.5	First	stimuli/objects/setsof2/175a.jpg	175	3#	New	0.948	0
185.5	3.5	Repeat	stimuli/objects/setsof2/089b.jpg	89	2@	Similar	1.220	0
189.0	3.5	First	stimuli/objects/setsof2/161a.jpg	161	3#	New	0.896	0
192.5	3.5	Repeat	stimuli/objects/setsof2/178b.jpg	178	1!	Old	1.084	0
196.0	3.5	Foil	stimuli/objects/foils/foil_1699.JPG	0	3#	New	1.021	0
199.5	3.5	Foil	stimuli/objects/foils/foil_1308.JPG	0	3#	New	0.831	0
203.0	3.5	First	stimuli/objects/setsof2/134b.jpg	134	3#	New	0.928	0
206.5	3.5	Foil	stimuli/objects/foils/foil_1390.JPG	0	3#	New	0.799	0
210.0	3.5	First	stimuli/objects/setsof2/052a.jpg	52	3#	New	0.826	0
213.5	3.5	First	stimuli/objects/setsof2/037b.jpg	37	3#	New	0.819	0
217.0	3.5	Foil	stimuli/objects/foils/foil_1252.JPG	0	3#	New	0.783	0
220.5	3.5	Foil	stimuli/objects/foils/foil_1673.JPG	0	3#	New	0.740	0
224.0	3.5	First	stimuli/objects/setsof2/041b.jpg	41	3#	New	0.785	0
227.5	3.5	Foil	stimuli/objects/foils/foil_1506.JPG	0	3#	New	0.960	0
231.0	3.5	Foil	stimuli/objects/foils/foil_1677.JPG	0	3#	New	0.795	0
234.5	3.5	Foil	stimuli/objects/foils/foil_1001.jpg	0	3#	New	1.208	0
238.0	3.5	First	stimuli/objects/setsof2/060b.jpg	60	3#	New	1.039	0
241.5	3.5	Foil	stimuli/objects/foils/foil_1306.JPG	0	3#	New	1.018	0
245.0	3.5	Repeat	stimuli/objects/setsof2/139a.jpg	139	1!	Old	0.994	0
248.5	3.5	Lure	stimuli/objects/setsof2/037a.jpg	37	1!	Old	1.213	6
252.0	3.5	Foil	stimuli/objects/foils/foil_1508.JPG	0	2@	Similar	0.926	0
255.5	3.5	First	stimuli/objects/setsof2/137b.jpg	137	3#	New	0.784	0
259.0	3.5	Repeat	stimuli/objects/setsof2/041b.jpg	41	1!	Old	0.971	0
262.5	3.5	Foil	stimuli/objects/foils/foil_1591.JPG	0	3#	New	0.838	0
266.0	3.5	First	stimuli/objects/setsof2/112b.jpg	112	3#	New	0.896	0
269.5	3.5	First	stimuli/objects/setsof2/179b.jpg	179	3#	New	0.954	0
273.0	3.5	Lure	stimuli/objects/setsof2/134a.jpg	134	2@	Similar	1.047	1
276.5	3.5	First	stimuli/objects/setsof2/129b.jpg	129	3#	New	1.014	0
280.0	3.5	Repeat	stimuli/objects/setsof2/077a.jpg	77	5%	None	1.728	0
283.5	3.5	Repeat	stimuli/objects/setsof2/133a.jpg	133	1!	Old	1.186	0
287.0	3.5	First	stimuli/objects/setsof2/028a.jpg	28	3#	New	0.932	0
290.5	3.5	Repeat	stimuli/objects/setsof2/179b.jpg	179	1!	Old	1.518	0
294.0	3.5	Foil	stimuli/objects/foils/foil_1357.JPG	0	3#	New	1.372	0
297.5	3.5	First	stimuli/objects/setsof2/102b.jpg	102	3#	New	1.242	0
301.0	3.5	Lure	stimuli/objects/setsof2/100b.jpg	100	1!	Old	0.948	5
304.5	3.5	Foil	stimuli/objects/foils/foil_1711.JPG	0	3#	New	0.995	0
308.0	3.5	First	stimuli/objects/setsof2/156b.jpg	156	3#	New	1.471	0
311.5	3.5	Lure	stimuli/objects/setsof2/161b.jpg	161	2@	Similar	0.997	4
315.0	3.5	Lure	stimuli/objects/setsof2/060a.jpg	60	1!	Old	1.199	3
318.5	3.5	First	stimuli/objects/setsof2/149b.jpg	149	3#	New	0.880	0
322.0	3.5	Repeat	stimuli/objects/setsof2/137b.jpg	137	1!	Old	1.027	0
325.5	3.5	Foil	stimuli/objects/foils/foil_1728.jpg	0	3#	New	1.058	0
329.0	3.5	Repeat	stimuli/objects/setsof2/175a.jpg	175	1!	Old	1.010	0
332.5	3.5	Repeat	stimuli/objects/setsof2/052a.jpg	52	1!	Old	0.920	0
336.0	3.5	Repeat	stimuli/objects/setsof2/112b.jpg	112	1!	Old	1.256	0
339.5	3.5	First	stimuli/objects/setsof2/033b.jpg	33	3#	New	1.203	0
343.0	3.5	Foil	stimuli/objects/foils/foil_1670.JPG	0	3#	New	1.113	0
346.5	3.5	Lure	stimuli/objects/setsof2/156a.jpg	156	1!	Old	1.052	5
350.0	3.5	Foil	stimuli/objects/foils/foil_1408.JPG	0	3#	New	1.198	0
353.5	3.5	Lure	stimuli/objects/setsof2/149a.jpg	149	2@	Similar	1.187	2
357.0	3.5	Lure	stimuli/objects/setsof2/028b.jpg	28	1!	Old	1.224	6
360.5	3.5	Repeat	stimuli/objects/setsof2/129b.jpg	129	1!	Old	1.076	0
364.0	3.5	Lure	stimuli/objects/setsof2/033a.jpg	33	1!	Old	1.245	4
367.5	3.5	Foil	stimuli/objects/foils/foil_1681.JPG	0	2@	Similar	1.235	0
371.0	3.5	Lure	stimuli/objects/setsof2/102a.jpg	102	1!	Old	1.632	3
